SessionID,SessionDate,SessionDuration,SessionFrequency,RecordID,Timestamp,timeIntervalSince1970,GyroX,GyroY,GyroZ,AccX,AccY,AccZ,MagX,MagY,MagZ,WatchTimestamp,WatchtImeIntervalSince1970,WatchGyroX,WatchGyroY,WatchGyroZ,WatchAccX,WatchAccY,WatchAccZ0,36:11.9,0:08,60,0,36:12.0,1540931772,0.028601285,-0.440232512,-0.064801634,0.020095825,-0.143386841,-1.061035156,34.12013245,24.32292175,-74.36068726,,,,,,,,0,36:11.9,0:08,60,0,36:12.0,1540931772,0.019471702,-0.40761092,-0.086176431,-0.013671875,-0.15222168,-1.036697388,33.88699341,24.29127502,-74.37454224,,,,,,,,0,36:11.9,0:08,60,0,36:12.0,1540931772,-0.070432621,-0.338400955,-0.137470778,-0.045669556,-0.163391113,-0.985839844,33.5308075,24.28410339,-74.31611633,,,,,,,,0,36:11.9,0:08,60,0,36:12.0,1540931772,-0.156878298,-0.238930557,-0.190870353,-0.066589355,-0.162536621,-0.964950562,33.34594727,24.32080078,-74.24674988,,,,,,,,0,36:11.9,0:08,60,0,36:12.0,1540931772,-0.236369928,-0.071432638,-0.232408209,-0.069229126,-0.140441895,-0.950302124,33.34594727,24.32080078,-74.24674988,,,,,,,,0,36:11.9,0:08,60,0,36:12.0,1540931772,-0.298064718,0.092478269,-0.231120305,-0.069229126,-0.140441895,-0.950302124,33.38070679,24.4697113,-74.08320618,,,,,,,,0,36:11.9,0:08,60,0,36:12.1,1540931772,-0.294419116,0.15496242,-0.177501018,-0.042938232,-0.132843018,-0.96333313,33.35037231,24.63047791,-74.31303406,,,,,,,,0,36:11.9,0:08,60,0,36:12.1,1540931772,-0.230594597,0.125833829,-0.079033034,-0.001464844,-0.135681152,-0.999252319,33.01849365,25.16235352,-74.23323059,,,,,,,,0,36:11.9,0:08,60,0,36:12.1,1540931772,-0.178838458,0.043890759,0.00223892,-0.001464844,-0.135681152,-0.999252319,33.26519775,25.1134491,-74.29968262,,,,,,,,0,36:11.9,0:08,60,0,36:12.1,1540931772,-0.161681575,-0.027805799,0.038555648,-0.002853394,-0.163085938,-0.994949341,33.08293152,25.15039063,-73.91792297,,,,,,,,0,36:11.9,0:08,60,0,36:12.1,1540931772,-0.173538235,-0.066424298,-0.012890499,-0.058563232,-0.219070435,-1.014907837,33.42359924,25.2379303,-74.13032532,,,,,,,,0,36:11.9,0:08,60,0,36:12.2,1540931772,-0.132180674,-0.058954397,-0.086780702,-0.048934937,-0.213012695,-1.014266968,33.21884155,25.04528809,-74.14863586,,,,,,,,0,36:11.9,0:08,60,0,36:12.2,1540931772,-0.187215697,0.024939172,-0.10701034,0.002075195,-0.19354248,-0.96836853,33.15765381,25.05755615,-74.07344055,,,,,,,,0,36:11.9,0:08,60,0,36:12.2,1540931772,-0.238590205,0.062091334,-0.078038876,0.002075195,-0.19354248,-0.96836853,33.17430115,25.28657532,-74.37626648,,,,,,,,0,36:11.9,0:08,60,0,36:12.2,1540931772,-0.189937714,0.079968869,-0.067319919,0.00112915,-0.172851563,-1.024902344,33.03840637,25.39167786,-74.14555359,,,,,,,,0,36:11.9,0:08,60,0,36:12.2,1540931772,-0.101298392,0.092007422,-0.044838312,-0.001159668,-0.165420532,-1.030166626,33.02485657,25.472229,-74.06523132,,,,,,,,0,36:11.9,0:08,60,0,36:12.2,1540931772,-0.02714853,0.02412025,-0.016026637,-0.001159668,-0.165420532,-1.030166626,33.02485657,25.472229,-74.06523132,,,,,,,,0,36:11.9,0:08,60,0,36:12.3,1540931772,-0.010878214,-0.037700507,-0.012894227,-0.018707275,-0.171600342,-0.979019165,33.17494202,25.28663635,-74.29815674,,,,,,,,0,36:11.9,0:08,60,0,36:12.3,1540931772,-0.076209284,-0.03700489,-0.030011429,-0.032287598,-0.177536011,-0.960220337,32.95732117,25.17463684,-74.15803528,,,,,,,,0,36:11.9,0:08,60,0,36:12.3,1540931772,-0.152735484,0.005976666,-0.046002912,-0.034088135,-0.181289673,-0.971206665,32.92956543,25.3356781,-74.07550049,,,,,,,,0,36:11.9,0:08,60,0,36:12.3,1540931772,-0.186142177,0.044097953,-0.032026643,-0.025054932,-0.180755615,-1.00239563,33.05323792,25.31124878,-74.06968689,,,,,,,,0,36:11.9,0:08,60,0,36:12.3,1540931772,-0.152175422,0.076070267,0.00548478,-0.018325806,-0.184906006,-1.022384644,32.89611816,25.18690491,-74.08285522,,,,,,,,0,36:11.9,0:08,60,0,36:12.3,1540931772,-0.111918546,0.10472881,0.045132325,-0.019104004,-0.194381714,-1.02015686,32.89611816,25.18690491,-74.08285522,,,,,,,,0,36:11.9,0:08,60,0,36:12.4,1540931772,-0.086530365,0.120580744,0.077271619,-0.01385498,-0.206298828,-1.016967773,33.06303406,24.92106628,-74.00563049,,,,,,,,0,36:11.9,0:08,60,0,36:12.4,1540931772,0.034475419,0.006542055,0.174550236,0.009140015,-0.205810547,-1.029083252,33.15260315,24.74780273,-74.08525085,,,,,,,,0,36:11.9,0:08,60,0,36:12.4,1540931772,0.034475419,0.006542055,0.174550236,0.012649536,-0.211853027,-1.012908936,33.01473999,24.85272217,-74.08883667,,,,,,,,0,36:11.9,0:08,60,0,36:12.4,1540931772,0.019478893,-0.007554855,0.219512651,0.004852295,-0.212310791,-1.005508423,32.97085571,25.09405518,-74.23835754,,,,,,,,0,36:11.9,0:08,60,0,36:12.4,1540931772,-0.007888549,0.002356631,0.240948701,-0.006240845,-0.192672729,-1.026245117,33.11851501,24.59898376,-74.17071533,,,,,,,,0,36:11.9,0:08,60,0,36:12.4,1540931772,-0.01725542,0.018610702,0.25596307,-0.005462646,-0.179580688,-1.064041138,33.4078064,24.30859375,-74.24383545,,,,,,,,0,36:11.9,0:08,60,0,36:12.5,1540931772,0.041024399,0.05790378,0.297761117,0.006988525,-0.155532837,-1.117156982,33.4078064,24.30859375,-74.24383545,,,,,,,,0,36:11.9,0:08,60,0,36:12.5,1540931772,0.169379176,0.150549029,0.353529308,0.023254395,-0.150588989,-1.121002197,33.5096283,24.05464172,-74.55999756,,,,,,,,0,36:11.9,0:08,60,0,36:12.5,1540931772,0.22366372,0.217916618,0.416780183,0.0362854,-0.163574219,-1.080627441,33.86138916,23.75210571,-74.55212402,,,,,,,,0,36:11.9,0:08,60,0,36:12.5,1540931773,0.040847298,0.193417134,0.490683436,0.038925171,-0.174819946,-1.054702759,33.90837097,23.82032776,-74.62507629,,,,,,,,0,36:11.9,0:08,60,0,36:12.5,1540931773,0.040847298,0.193417134,0.490683436,0.021560669,-0.175018311,-1.073181152,34.06108093,23.63499451,-74.54562378,,,,,,,,0,36:11.9,0:08,60,0,36:12.5,1540931773,-0.098643487,0.15166729,0.446760187,-0.014068604,-0.162414551,-1.126708984,34.44630432,23.48123169,-74.53039551,,,,,,,,0,36:11.9,0:08,60,0,36:12.6,1540931773,-0.246339471,0.203712915,0.228404147,-0.040847778,-0.110092163,-1.205978394,34.44630432,23.48123169,-74.53039551,,,,,,,,0,36:11.9,0:08,60,0,36:12.6,1540931773,-0.246339471,0.203712915,0.228404147,-0.027923584,-0.040771484,-1.284408569,34.35035706,23.34461975,-74.61875916,,,,,,,,0,36:11.9,0:08,60,0,36:12.6,1540931773,-0.1368713,0.174694579,0.189790974,0.024078369,0.022201538,-1.33555603,34.75172424,23.11054993,-74.37147522,,,,,,,,0,36:11.9,0:08,60,0,36:12.6,1540931773,0.275354345,0.099713545,0.369504014,0.072647095,0.06262207,-1.315032959,34.60749817,22.90559387,-74.5430603,,,,,,,,0,36:11.9,0:08,60,0,36:12.6,1540931773,0.275354345,0.099713545,0.369504014,0.093460083,0.074401855,-1.21762085,34.74472046,22.80058289,-74.61755371,,,,,,,,0,36:11.9,0:08,60,0,36:12.6,1540931773,0.358909959,0.280919553,0.565675123,0.081222534,0.053619385,-1.10975647,35.12486267,22.33706665,-74.61413574,,,,,,,,0,36:11.9,0:08,60,0,36:12.7,1540931773,0.413242174,0.238056774,0.605231055,0.05708313,0.025802612,-1.046936035,35.12486267,22.33706665,-74.61413574,,,,,,,,0,36:11.9,0:08,60,0,36:12.7,1540931773,0.413242174,0.238056774,0.605231055,0.035598755,0.004516602,-1.024978638,35.60179138,21.30987549,-74.93869019,,,,,,,,0,36:11.9,0:08,60,0,36:12.7,1540931773,0.5104377,-0.109417305,0.440937185,0.018554688,-0.003433228,-0.998855591,35.6146698,21.22924805,-75.09709167,,,,,,,,0,36:11.9,0:08,60,0,36:12.7,1540931773,0.392609067,-0.099320729,0.362805098,0.010955811,-0.021270752,-0.944992065,35.639328,20.75865173,-74.95715332,,,,,,,,0,36:11.9,0:08,60,0,36:12.7,1540931773,0.392609067,-0.099320729,0.362805098,0.007904053,-0.032043457,-0.914245605,35.75532532,20.42420959,-75.27554321,,,,,,,,0,36:11.9,0:08,60,0,36:12.7,1540931773,0.229921616,0.052141232,0.203472698,0.014709473,-0.039932251,-0.922668457,35.67425537,20.20713806,-75.28804016,,,,,,,,0,36:11.9,0:08,60,0,36:12.8,1540931773,0.216684906,0.088188449,0.146764677,0.019882202,-0.042999268,-0.928787231,35.8618927,19.4703064,-75.53941345,,,,,,,,0,36:11.9,0:08,60,0,36:12.8,1540931773,0.240897302,0.076195436,0.112476478,0.039489746,-0.045150757,-0.93119812,35.8618927,19.4703064,-75.53941345,,,,,,,,0,36:11.9,0:08,60,0,36:12.8,1540931773,0.238805389,0.076245503,0.104981011,0.062591553,-0.053634644,-0.911346436,35.67637634,19.50694275,-75.54814148,,,,,,,,0,36:11.9,0:08,60,0,36:12.8,1540931773,0.208179036,0.073260366,0.113551596,0.099594116,-0.0912323,-0.85017395,35.82339478,19.01176453,-75.55859375,,,,,,,,0,36:11.9,0:08,60,0,36:12.8,1540931773,0.187794136,0.037745781,0.117796142,0.099594116,-0.0912323,-0.85017395,35.74604797,19.10435486,-75.71546936,,,,,,,,0,36:11.9,0:08,60,0,36:12.8,1540931773,0.173349416,-0.033596043,0.141270576,0.10925293,-0.100997925,-0.846878052,35.91168213,18.83840942,-75.79441833,,,,,,,,0,36:11.9,0:08,60,0,36:12.9,1540931773,0.144012034,-0.120976223,0.154020193,0.099319458,-0.119110107,-0.866516113,35.85897827,18.46037292,-75.81135559,,,,,,,,0,36:11.9,0:08,60,0,36:12.9,1540931773,0.13857812,-0.139285722,0.147573745,0.099319458,-0.119110107,-0.866516113,35.85897827,18.46037292,-75.81135559,,,,,,,,0,36:11.9,0:08,60,0,36:12.9,1540931773,0.115969747,-0.080614685,0.135872082,0.084533691,-0.124404907,-0.879302979,35.60722351,18.19950867,-75.75672913,,,,,,,,0,36:11.9,0:08,60,0,36:12.9,1540931773,0.031274033,-0.012630574,0.108133928,0.073577881,-0.14680481,-0.83807373,35.68455505,18.10693359,-75.599823,,,,,,,,0,36:11.9,0:08,60,0,36:12.9,1540931773,-0.08140591,-0.010244648,0.052479187,0.073577881,-0.14680481,-0.83807373,35.54475403,18.21165466,-75.83772278,,,,,,,,0,36:11.9,0:08,60,0,36:12.9,1540931773,-0.121840153,-0.058353322,0.008524246,0.078735352,-0.152450562,-0.911773682,35.54669189,18.21183777,-75.60342407,,,,,,,,0,36:11.9,0:08,60,0,36:13.0,1540931773,-0.112888735,-0.117867781,-0.006543387,0.087463379,-0.159561157,-0.937179565,35.40184021,18.00680542,-75.8531189,,,,,,,,0,36:11.9,0:08,60,0,36:13.0,1540931773,-0.115191571,-0.140516635,-0.017279388,0.087463379,-0.159561157,-0.937179565,35.40184021,18.00680542,-75.8531189,,,,,,,,0,36:11.9,0:08,60,0,36:13.0,1540931773,-0.116127672,-0.136044122,-0.051541222,0.074615479,-0.158920288,-0.975189209,35.44767761,17.76567078,-75.46929932,,,,,,,,0,36:11.9,0:08,60,0,36:13.0,1540931773,-0.125194937,-0.100122606,-0.086833166,0.082901001,-0.158493042,-0.99281311,35.18301392,17.5854187,-75.25624084,,,,,,,,0,36:11.9,0:08,60,0,36:13.0,1540931773,-0.159343586,-0.034859713,-0.096382197,0.082901001,-0.158493042,-0.99281311,35.00125122,17.93170166,-75.40937805,,,,,,,,0,36:11.9,0:08,60,0,36:13.0,1540931773,-0.206054366,-0.064747838,-0.083557478,0.113769531,-0.176773071,-1.028778076,34.95362854,17.86341858,-75.41448975,,,,,,,,0,36:11.9,0:08,60,0,36:13.1,1540931773,-0.205344634,-0.206514028,-0.066598735,0.122497559,-0.17930603,-1.079406738,34.56402588,17.70747375,-75.3634491,,,,,,,,0,36:11.9,0:08,60,0,36:13.1,1540931773,-0.189795768,-0.342967478,-0.061416489,0.094802856,-0.181030273,-1.13772583,34.37915039,17.74415588,-75.29406738,,,,,,,,0,36:11.9,0:08,60,0,36:13.1,1540931773,-0.15126755,-0.399478158,-0.087196155,0.037841797,-0.171295166,-1.203048706,34.37915039,17.74415588,-75.29406738,,,,,,,,0,36:11.9,0:08,60,0,36:13.1,1540931773,-0.069050707,-0.310189557,-0.163136993,0.037841797,-0.171295166,-1.203048706,34.25106812,17.45887756,-75.2335968,,,,,,,,0,36:11.9,0:08,60,0,36:13.1,1540931773,0.033127061,-0.114094615,-0.218604513,-0.009277344,-0.14654541,-1.224838257,33.85360718,17.69334412,-75.01231384,,,,,,,,0,36:11.9,0:08,60,0,36:13.1,1540931773,0.02163845,0.114282368,-0.230099515,0.00604248,-0.149032593,-1.143844604,33.85424805,17.69340515,-74.9342041,,,,,,,,0,36:11.9,0:08,60,0,36:13.2,1540931773,-0.150832389,0.152871039,-0.269632277,0.00604248,-0.149032593,-1.143844604,33.76535034,17.86672974,-74.776474,,,,,,,,0,36:11.9,0:08,60,0,36:13.2,1540931773,-0.322245688,0.179761776,-0.36165195,-0.00869751,-0.139556885,-1.145889282,33.71705627,17.79837036,-74.85971069,,,,,,,,0,36:11.9,0:08,60,0,36:13.2,1540931773,-0.4119817,0.14001889,-0.485899334,-0.030944824,-0.095245361,-1.212509155,33.71705627,17.79837036,-74.85971069,,,,,,,,0,36:11.9,0:08,60,0,36:13.2,1540931773,-0.381341765,0.138775993,-0.519104958,-0.023117065,-0.049972534,-1.261978149,33.73190308,17.71795654,-74.78382874,,,,,,,,0,36:11.9,0:08,60,0,36:13.2,1540931773,-0.212458736,0.173634108,-0.445213156,-0.01171875,-0.017272949,-1.276519775,33.58308411,17.90368652,-74.39471436,,,,,,,,0,36:11.9,0:08,60,0,36:13.2,1540931773,0.03241067,0.222776887,-0.339196175,-0.006454468,-0.016220093,-1.228286743,33.61210632,17.74276733,-74.32106018,,,,,,,,0,36:11.9,0:08,60,0,36:13.3,1540931773,0.209353756,0.227122634,-0.227863791,0.003372192,-0.031143188,-1.125808716,33.74803162,17.63764954,-74.55175781,,,,,,,,0,36:11.9,0:08,60,0,36:13.3,1540931773,0.278026561,0.15041667,-0.144447727,-0.006744385,-0.041809082,-1.030975342,33.64768982,17.19132996,-74.57383728,,,,,,,,0,36:11.9,0:08,60,0,36:13.3,1540931773,0.218287597,-0.144233609,-0.158718009,-0.03062439,-0.042098999,-0.969284058,33.76890564,16.85742188,-74.2674408,,,,,,,,0,36:11.9,0:08,60,0,36:13.3,1540931773,0.218287597,-0.144233609,-0.158718009,-0.051879883,-0.037765503,-0.968200684,33.76890564,16.85742188,-74.2674408,,,,,,,,0,36:11.9,0:08,60,0,36:13.3,1540931773,0.251713464,-0.182320807,-0.181261135,-0.063919067,-0.023010254,-0.997085571,33.48683167,16.75735474,-74.44264221,,,,,,,,0,36:11.9,0:08,60,0,36:13.3,1540931773,0.37513367,-0.061386396,-0.15544099,-0.062179565,-0.023849487,-0.992996216,33.20474243,16.6572876,-74.61781311,,,,,,,,0,36:11.9,0:08,60,0,36:13.4,1540931773,0.37513367,-0.061386396,-0.15544099,-0.069793701,-0.040893555,-0.95362854,33.06314087,16.45257568,-74.47703552,,,,,,,,0,36:11.9,0:08,60,0,36:13.4,1540931773,0.363450649,0.030816769,-0.193875464,-0.077270508,-0.062332153,-0.905670166,33.11485291,15.82086182,-74.49772644,,,,,,,,0,36:11.9,0:08,60,0,36:13.4,1540931773,0.276867553,0.106655873,-0.287996903,-0.069564819,-0.080368042,-0.861434937,33.24635315,15.40605164,-74.66213989,,,,,,,,0,36:11.9,0:08,60,0,36:13.4,1540931773,0.276867553,0.106655873,-0.287996903,-0.044372559,-0.088546753,-0.848144531,33.24635315,15.40605164,-74.66213989,,,,,,,,0,36:11.9,0:08,60,0,36:13.4,1540931773,0.300282598,0.017769143,-0.295608218,-0.030105591,-0.083450317,-0.841018677,33.29989624,15.08377075,-75.06152344,,,,,,,,0,36:11.9,0:08,60,0,36:13.4,1540931773,0.286270909,-0.009217999,-0.275291761,-0.025436401,-0.079666138,-0.825592041,33.49713135,14.65715027,-74.75445557,,,,,,,,0,36:11.9,0:08,60,0,36:13.5,1540931773,0.286270909,-0.009217999,-0.275291761,-0.028366089,-0.084030151,-0.810348511,33.43334961,14.66915894,-74.99163818,,,,,,,,0,36:11.9,0:08,60,0,36:13.5,1540931773,0.111616277,0.040950895,-0.230211634,-0.026763916,-0.094055176,-0.78805542,33.2550354,14.31535339,-75.248703,,,,,,,,0,36:11.9,0:08,60,0,36:13.5,1540931773,0.015483885,0.031972048,-0.188435958,-0.01725769,-0.110229492,-0.781082153,33.19889832,14.63739014,-75.16171265,,,,,,,,0,36:11.9,0:08,60,0,36:13.5,1540931774,0.015483885,0.031972048,-0.188435958,-0.022247314,-0.121795654,-0.805419922,33.19889832,14.63739014,-75.16171265,,,,,,,,0,36:11.9,0:08,60,0,36:13.5,1540931774,-0.076884928,-0.036321523,-0.19920658,-0.031738281,-0.12979126,-0.829177856,33.22729492,14.47639465,-75.16616821,,,,,,,,0,36:11.9,0:08,60,0,36:13.5,1540931774,-0.146092229,0.0011646,-0.210923157,-0.037261963,-0.135803223,-0.84387207,33.25764465,14.31561279,-74.93630981,,,,,,,,0,36:11.9,0:08,60,0,36:13.6,1540931774,-0.264701967,0.059594088,-0.202255633,-0.033309937,-0.144760132,-0.849227905,33.04179382,14.51301575,-75.17489624,,,,,,,,0,36:11.9,0:08,60,0,36:13.6,1540931774,-0.366830466,0.082090875,-0.173290028,-0.01763916,-0.158935547,-0.861740112,33.29107666,14.46438599,-74.92895508,,,,,,,,0,36:11.9,0:08,60,0,36:13.6,1540931774,-0.355447583,0.073093119,-0.114406471,0.014450073,-0.160934448,-0.998977661,33.34184265,14.84222412,-75.14631653,,,,,,,,0,36:11.9,0:08,60,0,36:13.6,1540931774,-0.241750046,0.075946963,-0.019123627,0.014450073,-0.160934448,-0.998977661,33.34509277,14.84254456,-74.75582886,,,,,,,,0,36:11.9,0:08,60,0,36:13.6,1540931774,-0.129249067,0.067927652,0.09327988,0.030456543,-0.171447754,-1.044067383,33.34509277,14.84254456,-74.75582886,,,,,,,,0,36:11.9,0:08,60,0,36:13.6,1540931774,-0.086790289,0.002362224,0.158511348,0.034881592,-0.223861694,-1.039138794,33.49713135,14.65715027,-74.75445557,,,,,,,,0,36:11.9,0:08,60,0,36:13.7,1540931774,-0.089152513,-0.123266009,0.204404005,0.034881592,-0.223861694,-1.039138794,33.46875,14.81813049,-74.75001526,,,,,,,,0,36:11.9,0:08,60,0,36:13.7,1540931774,-0.071232102,-0.222065823,0.25460832,0.044281006,-0.234939575,-1.073074341,33.44230652,14.97932434,-74.51126099,,,,,,,,0,36:11.9,0:08,60,0,36:13.7,1540931774,-0.038764707,-0.234459376,0.300632271,0.037475586,-0.22038269,-1.137268066,33.23623657,14.7865448,-74.6857605,,,,,,,,0,36:11.9,0:08,60,0,36:13.7,1540931774,-0.010018546,-0.194904243,0.34779206,0.008239746,-0.188995361,-1.202484131,33.23623657,14.7865448,-74.6857605,,,,,,,,0,36:11.9,0:08,60,0,36:13.7,1540931774,0.084201164,-0.034845865,0.397226456,-0.004425049,-0.152328491,-1.294677734,33.48358154,14.73770142,-74.6741333,,,,,,,,0,36:11.9,0:08,60,0,36:13.7,1540931774,0.22886514,0.226245388,0.485324357,-0.004425049,-0.152328491,-1.294677734,33.57446289,14.56455994,-74.5975647,,,,,,,,0,36:11.9,0:08,60,0,36:13.8,1540931774,0.265328076,0.305660319,0.553948692,0.00843811,-0.145019531,-1.262619019,33.92687988,14.26210022,-74.51161194,,,,,,,,0,36:11.9,0:08,60,0,36:13.8,1540931774,0.18207846,0.197285376,0.536701262,0.014526367,-0.184936523,-1.13381958,34.12528992,14.14483643,-74.6612854,,,,,,,,0,36:11.9,0:08,60,0,36:13.8,1540931774,0.044136835,-0.030207704,0.415446472,0.014526367,-0.184936523,-1.13381958,34.21615601,13.97171021,-74.58473206,,,,,,,,0,36:11.9,0:08,60,0,36:13.8,1540931774,-0.103666209,-0.307171663,0.247015115,7.63E-05,-0.180145264,-1.141448975,33.95332336,14.10093689,-74.75035095,,,,,,,,0,36:11.9,0:08,60,0,36:13.8,1540931774,-0.08928647,-0.374962695,0.124849791,-0.02331543,-0.006729126,-1.281387329,33.95332336,14.10093689,-74.75035095,,,,,,,,0,36:11.9,0:08,60,0,36:13.8,1540931774,0.081004306,-0.208973457,0.131438718,-0.02331543,-0.006729126,-1.281387329,33.78071594,14.0569458,-74.91749573,,,,,,,,0,36:11.9,0:08,60,0,36:13.9,1540931774,0.248907025,0.067917532,0.269881016,0.063934326,0.063949585,-1.177810669,33.8374939,13.73498535,-74.9263916,,,,,,,,0,36:11.9,0:08,60,0,36:13.9,1540931774,0.298073506,0.284193643,0.433977812,0.075698853,0.029708862,-1.037109375,34.04615784,13.92799377,-74.4394989,,,,,,,,0,36:11.9,0:08,60,0,36:13.9,1540931774,0.273276547,0.351247246,0.495105615,0.075698853,0.029708862,-1.037109375,34.39726257,13.62539673,-74.50971985,,,,,,,,0,36:11.9,0:08,60,0,36:13.9,1540931774,0.187591469,0.196600677,0.424258606,0.026138306,-0.063262939,-0.853118896,34.36756897,13.78623962,-74.66146851,,,,,,,,0,36:11.9,0:08,60,0,36:13.9,1540931774,0.082517247,-0.124187729,0.293243064,0.016586304,-0.080734253,-0.850860596,34.32907104,13.32771301,-74.68061829,,,,,,,,0,36:11.9,0:08,60,0,36:13.9,1540931774,0.013828464,-0.389085971,0.163358568,0.016586304,-0.080734253,-0.850860596,34.32907104,13.32771301,-74.68061829,,,,,,,,0,36:11.9,0:08,60,0,36:14.0,1540931774,-0.019408319,-0.467356009,0.07117591,0.010650635,-0.060150146,-0.928222656,34.04174805,13.61828613,-74.37321472,,,,,,,,0,36:11.9,0:08,60,0,36:14.0,1540931774,-0.030623956,-0.326484908,0.032801356,0.01171875,-0.052856445,-0.941329956,34.10488892,13.60620117,-74.21409607,,,,,,,,0,36:11.9,0:08,60,0,36:14.0,1540931774,-0.013356818,-0.061724884,0.050257578,0.026657104,-0.057098389,-0.931381226,33.92573547,13.95272827,-74.05484009,,,,,,,,0,36:11.9,0:08,60,0,36:14.0,1540931774,-0.000809601,0.155408233,0.08800256,0.045349121,-0.070358276,-0.885040283,34.07778931,13.76733398,-74.0534668,,,,,,,,0,36:11.9,0:08,60,0,36:14.0,1540931774,-0.017388311,0.195419831,0.129819516,0.062835693,-0.092407227,-0.839889526,34.30587769,13.48921204,-74.05142212,,,,,,,,0,36:11.9,0:08,60,0,36:14.0,1540931774,-0.017596304,0.066663183,0.141440219,0.069564819,-0.112548828,-0.829879761,34.30587769,13.48921204,-74.05142212,,,,,,,,0,36:11.9,0:08,60,0,36:14.1,1540931774,0.024085096,-0.100210491,0.117665381,0.072143555,-0.126876831,-0.842391968,34.48568726,13.14274597,-74.13258362,,,,,,,,0,36:11.9,0:08,60,0,36:14.1,1540931774,-0.024337564,-0.199292334,0.127192574,0.067214966,-0.127090454,-0.836456299,34.25823975,13.42092896,-74.05656433,,,,,,,,0,36:11.9,0:08,60,0,36:14.1,1540931774,-0.024337564,-0.199292334,0.127192574,0.06098938,-0.132415771,-0.847427368,34.20146179,13.74290466,-74.0476532,,,,,,,,0,36:11.9,0:08,60,0,36:14.1,1540931774,-0.057522149,-0.139515286,0.134770332,0.040374756,-0.127883911,-0.881011963,34.09002686,13.68664551,-74.28996277,,,,,,,,0,36:11.9,0:08,60,0,36:14.1,1540931774,-0.027175961,-0.074550135,0.044890776,0.028137207,-0.133773804,-0.909408569,34.19509888,13.43299866,-74.21563721,,,,,,,,0,36:11.9,0:08,60,0,36:14.1,1540931774,-0.027175961,-0.074550135,0.044890776,0.026031494,-0.1431427,-0.905654907,34.19509888,13.43299866,-74.21563721,,,,,,,,0,36:11.9,0:08,60,0,36:14.2,1540931774,-0.097677292,-0.075749622,-0.026841468,0.034637451,-0.154708862,-0.898193359,34.09393311,13.68702698,-73.82139587,,,,,,,,0,36:11.9,0:08,60,0,36:14.2,1540931774,-0.211051255,-0.042947734,-0.113513513,0.044372559,-0.163619995,-0.929275513,34.15576172,13.67480469,-73.81848145,,,,,,,,0,36:11.9,0:08,60,0,36:14.2,1540931774,-0.211051255,-0.042947734,-0.113513513,0.053512573,-0.165802002,-0.998184204,34.09898376,13.99676514,-73.80958557,,,,,,,,0,36:11.9,0:08,60,0,36:14.2,1540931774,-0.084491715,-0.154409547,-0.132956986,0.059494019,-0.162078857,-1.047637939,33.97221375,13.7116394,-73.59292603,,,,,,,,0,36:11.9,0:08,60,0,36:14.2,1540931774,-0.081564368,-0.187813311,-0.171549918,0.049530029,-0.160964966,-1.069564819,33.80726624,13.97766113,-73.43588257,,,,,,,,0,36:11.9,0:08,60,0,36:14.2,1540931774,-0.081564368,-0.187813311,-0.171549918,0.031188965,-0.164093018,-1.080551147,33.80726624,13.97766113,-73.43588257,,,,,,,,0,36:11.9,0:08,60,0,36:14.3,1540931774,-0.141924648,-0.133729569,-0.297830359,0.022003174,-0.163864136,-1.116104126,33.77122498,13.8286438,-73.75561523,,,,,,,,0,36:11.9,0:08,60,0,36:14.3,1540931774,-0.104838798,-0.10930705,-0.273179341,0.047927856,-0.152832031,-1.166915894,33.61849976,14.01397705,-73.83509827,,,,,,,,0,36:11.9,0:08,60,0,36:14.3,1540931774,-0.104838798,-0.10930705,-0.273179341,0.066970825,-0.136444092,-1.221862793,33.49809265,14.03871155,-73.45042419,,,,,,,,0,36:11.9,0:08,60,0,36:14.3,1540931774,0.142279914,-0.051430168,-0.19285281,0.052017212,-0.124404907,-1.25328064,33.3936615,14.29238892,-73.44664001,,,,,,,,0,36:11.9,0:08,60,0,36:14.3,1540931774,0.266029287,0.109422099,-0.142353683,0.023300171,-0.117034912,-1.234069824,33.47035217,14.19978333,-73.36787415,,,,,,,,0,36:11.9,0:08,60,0,36:14.3,1540931774,0.301836553,0.216132034,-0.135805503,0.00718689,-0.135742188,-1.178527832,33.72616577,13.76060486,-73.44836426,,,,,,,,0,36:11.9,0:08,60,0,36:14.4,1540931774,0.204276706,0.140591203,-0.215118968,-0.015182495,-0.160842896,-1.116699219,33.72616577,13.76060486,-73.44836426,,,,,,,,0,36:11.9,0:08,60,0,36:14.4,1540931774,0.204276706,0.140591203,-0.215118968,-0.02973938,-0.157699585,-1.086471558,33.72177124,13.45092773,-73.38208008,,,,,,,,0,36:11.9,0:08,60,0,36:14.4,1540931774,0.024839037,0.07817523,-0.404695291,-0.035263062,-0.158538818,-1.10446167,33.78361511,13.43870544,-73.37916565,,,,,,,,0,36:11.9,0:08,60,0,36:14.4,1540931774,-0.069770826,0.074270769,-0.553527114,-0.06652832,-0.137771606,-1.137161255,33.61230469,13.39485168,-73.39012146,,,,,,,,0,36:11.9,0:08,60,0,36:14.4,1540931774,-0.069770826,0.074270769,-0.553527114,-0.06652832,-0.137771606,-1.137161255,33.61230469,13.39485168,-73.39012146,,,,,,,,0,36:11.9,0:08,60,0,36:14.4,1540931774,-0.006073871,0.1031413,-0.62311285,-0.070907593,-0.055633545,-1.19833374,33.48272705,13.80984497,-72.9914093,,,,,,,,0,36:11.9,0:08,60,0,36:14.5,1540931774,0.103224923,0.0844523,-0.539635,-0.038986206,-0.027618408,-1.201019287,33.48272705,13.80984497,-72.9914093,,,,,,,,0,36:11.9,0:08,60,0,36:14.5,1540931774,0.224401149,0.106544819,-0.40470834,0.000396729,-0.02166748,-1.152786255,33.37130737,13.75357056,-73.23376465,,,,,,,,0,36:11.9,0:08,60,0,36:14.5,1540931774,0.278732032,0.187814376,-0.301818443,0.007019043,-0.018798828,-1.084091187,33.70820618,13.53147888,-73.30177307,,,,,,,,0,36:11.9,0:08,60,0,36:14.5,1540931775,0.251724117,0.246202052,-0.232133904,-0.023498535,-0.040298462,-0.922210693,33.62843323,13.31452942,-73.15805054,,,,,,,,0,36:11.9,0:08,60,0,36:14.5,1540931775,0.197265402,0.182777007,-0.199002316,-0.023498535,-0.040298462,-0.922210693,33.96536255,13.092453,-73.22607422,,,,,,,,0,36:11.9,0:08,60,0,36:14.5,1540931775,0.159665562,0.004603807,-0.182079258,-0.027923584,-0.05039978,-0.891693115,33.76435852,13.20944214,-73.38876343,,,,,,,,0,36:11.9,0:08,60,0,36:14.6,1540931775,0.177232039,-0.138410074,-0.164055251,-0.036865234,-0.070739746,-0.894699097,33.82307434,12.88766479,-73.1633606,,,,,,,,0,36:11.9,0:08,60,0,36:14.6,1540931775,0.231790356,-0.167051307,-0.165174577,-0.036865234,-0.070739746,-0.894699097,33.82307434,12.88766479,-73.1633606,,,,,,,,0,36:11.9,0:08,60,0,36:14.6,1540931775,0.256450961,-0.133599607,-0.204761135,-0.054046631,-0.082046509,-0.88293457,33.78768921,12.7387085,-73.40501404,,,,,,,,0,36:11.9,0:08,60,0,36:14.6,1540931775,0.271661606,-0.098924184,-0.25719425,-0.071655273,-0.106216431,-0.856918335,33.56938171,12.62663269,-73.34300232,,,,,,,,0,36:11.9,0:08,60,0,36:14.6,1540931775,0.266527298,-0.091187967,-0.286096738,-0.071655273,-0.106216431,-0.856918335,33.38258362,12.66311646,-73.50791931,,,,,,,,0,36:11.9,0:08,60,0,36:14.6,1540931775,0.240425922,-0.063901485,-0.284985934,-0.046081543,-0.133041382,-0.822677612,33.40002441,12.58293152,-73.11965942,,,,,,,,0,36:11.9,0:08,60,0,36:14.7,1540931775,0.187930756,-0.041739724,-0.291371129,-0.047210693,-0.141021729,-0.808761597,33.66940308,12.06324768,-73.28048706,,,,,,,,0,36:11.9,0:08,60,0,36:14.7,1540931775,0.106003399,-0.014883342,-0.319160682,-0.047210693,-0.141021729,-0.808761597,33.66940308,12.06324768,-73.28048706,,,,,,,,0,36:11.9,0:08,60,0,36:14.7,1540931775,-0.013920343,0.010140252,-0.338376454,-0.047698975,-0.138473511,-0.799438477,33.34602356,12.20477295,-73.2928009,,,,,,,,0,36:11.9,0:08,60,0,36:14.7,1540931775,-0.092435658,-0.041014811,-0.340562377,-0.053817749,-0.136825562,-0.861419678,33.38861084,11.96331787,-73.29946899,,,,,,,,0,36:11.9,0:08,60,0,36:14.7,1540931775,-0.073697923,-0.068200626,-0.349167317,-0.053817749,-0.136825562,-0.861419678,33.19396973,12.3901825,-73.29415894,,,,,,,,0,36:11.9,0:08,60,0,36:14.7,1540931775,-0.066128953,-0.049864496,-0.35450083,-0.063323975,-0.132888794,-0.916976929,33.24356079,12.45866394,-73.05474854,,,,,,,,0,36:11.9,0:08,60,0,36:14.8,1540931775,-0.120911508,0.064243169,-0.35755947,-0.046524048,-0.134002686,-0.908584595,33.22937012,12.53915405,-73.05252075,,,,,,,,0,36:11.9,0:08,60,0,36:14.8,1540931775,-0.20420773,0.183856918,-0.316699122,-0.014968872,-0.131881714,-0.921295166,33.22937012,12.53915405,-73.05252075,,,,,,,,0,36:11.9,0:08,60,0,36:14.8,1540931775,-0.215816716,0.207335347,-0.20958119,0.022583008,-0.141174316,-0.963531494,33.48959351,12.40968323,-73.19929504,,,,,,,,0,36:11.9,0:08,60,0,36:14.8,1540931775,-0.127347836,0.115134047,-0.085496259,0.019195557,-0.163314819,-1.007736206,33.75814819,12.59031677,-72.94378662,,,,,,,,0,36:11.9,0:08,60,0,36:14.8,1540931775,-0.002938532,0.015312111,-0.035318842,-0.020401001,-0.181503296,-1.027694702,33.50230408,13.02947998,-72.86329651,,,,,,,,0,36:11.9,0:08,60,0,36:14.8,1540931775,0.075735508,-0.029746178,-0.046101982,-0.055282593,-0.195022583,-1.025253296,33.52809143,12.8682251,-73.18013,,,,,,,,0,36:11.9,0:08,60,0,36:14.9,1540931775,0.072516811,0.044356812,-0.176654932,-0.084732056,-0.196456909,-1.035003662,33.71492004,12.83172607,-73.01521301,,,,,,,,0,36:11.9,0:08,60,0,36:14.9,1540931775,0.072516811,0.044356812,-0.176654932,-0.056945801,-0.191360474,-1.049118042,33.74461365,12.67086792,-72.86346436,,,,,,,,0,36:11.9,0:08,60,0,36:14.9,1540931775,0.034524421,0.041468081,-0.174507625,-0.020706177,-0.17515564,-1.096298218,33.74461365,12.67086792,-72.86346436,,,,,,,,0,36:11.9,0:08,60,0,36:14.9,1540931775,0.073444657,0.287075982,-0.017868213,0.003097534,-0.167068481,-1.142333984,33.90106201,12.79515076,-72.9283905,,,,,,,,0,36:11.9,0:08,60,0,36:14.9,1540931775,0.073444657,0.287075982,-0.017868213,0.001495361,-0.155548096,-1.168762207,33.82502747,12.88786316,-72.92907715,,,,,,,,0,36:11.9,0:08,60,0,36:14.9,1540931775,0.160012306,0.416957017,0.022963905,-0.029098511,-0.147903442,-1.187286377,34.27207947,12.72189331,-72.91093445,,,,,,,,0,36:11.9,0:08,60,0,36:15.0,1540931775,0.341483831,0.521499938,-0.048698564,-0.051467896,-0.157043457,-1.184875488,34.49952698,12.44372559,-72.98696899,,,,,,,,0,36:11.9,0:08,60,0,36:15.0,1540931775,0.341483831,0.521499938,-0.048698564,-0.021942139,-0.180435181,-1.119552612,34.99356079,12.34596252,-73.04179382,,,,,,,,0,36:11.9,0:08,60,0,36:15.0,1540931775,-0.035931369,0.072240908,-0.127334786,0.027542114,-0.198348999,-1.085739136,34.99356079,12.34596252,-73.04179382,,,,,,,,0,36:11.9,0:08,60,0,36:15.0,1540931775,-0.035931369,0.072240908,-0.127334786,0.021636963,-0.167358398,-1.115219116,35.09667969,12.09214783,-73.20176697,,,,,,,,0,36:11.9,0:08,60,0,36:15.0,1540931775,-0.311138708,-0.282680435,-0.240146823,-0.047363281,-0.084945679,-1.284484863,34.91313171,12.12898254,-72.97619629,,,,,,,,0,36:11.9,0:08,60,0,36:15.0,1540931775,0.065102304,0.10578209,-0.372545078,-0.080886841,-0.002807617,-1.432998657,34.58320618,12.66101074,-72.66209412,,,,,,,,0,36:11.9,0:08,60,0,36:15.1,1540931775,0.065102304,0.10578209,-0.372545078,-0.074905396,0.091140747,-1.436981201,34.5380249,12.9022522,-72.96780396,,,,,,,,0,36:11.9,0:08,60,0,36:15.1,1540931775,0.401662217,0.49767956,-0.186883601,0.000900269,0.07069397,-1.290908813,34.97366333,12.11662292,-73.12947083,,,,,,,,0,36:11.9,0:08,60,0,36:15.1,1540931775,0.491543903,0.33937514,-0.035038145,0.006729126,0.031997681,-1.082977295,34.97366333,12.11662292,-73.12947083,,,,,,,,0,36:11.9,0:08,60,0,36:15.1,1540931775,0.491543903,0.33937514,-0.035038145,-0.025177002,-0.022354126,-0.947387695,35.12635803,11.93128967,-73.05000305,,,,,,,,0,36:11.9,0:08,60,0,36:15.1,1540931775,0.192100467,-0.337971388,-0.604429177,-0.078536987,-0.047393799,-0.920822144,35.18315125,11.60932922,-73.05889893,,,,,,,,0,36:11.9,0:08,60,0,36:15.1,1540931775,0.141413055,-0.291093361,-0.845303043,-0.114196777,-0.022842407,-0.959701538,34.75289917,11.6950531,-72.76687622,,,,,,,,0,36:11.9,0:08,60,0,36:15.2,1540931775,0.141413055,-0.291093361,-0.845303043,-0.109375,0.014434814,-0.977172852,34.484375,11.51445007,-73.0223999,,,,,,,,0,36:11.9,0:08,60,0,36:15.2,1540931775,0.118739967,0.043129628,-1.062270244,-0.07875061,0.043624878,-0.973297119,34.16163635,11.65605164,-72.95661926,,,,,,,,0,36:11.9,0:08,60,0,36:15.2,1540931775,0.143634664,0.1078258,-1.071834188,-0.042755127,0.063049316,-0.955825806,34.19915771,11.10481262,-72.97511292,,,,,,,,0,36:11.9,0:08,60,0,36:15.2,1540931775,0.143634664,0.1078258,-1.071834188,-0.014160156,0.062179565,-0.923065186,34.19915771,11.10481262,-72.97511292,,,,,,,,0,36:11.9,0:08,60,0,36:15.2,1540931775,0.136359973,-0.127428263,-1.188846562,-0.017120361,0.054901123,-0.885253906,34.15722656,11.34635925,-72.89033508,,,,,,,,0,36:11.9,0:08,60,0,36:15.2,1540931775,0.14977618,-0.298984573,-1.326131717,-0.035064697,0.046432495,-0.884765625,33.72372437,11.43177795,-72.98878479,,,,,,,,0,36:11.9,0:08,60,0,36:15.3,1540931775,0.119288578,-0.431172971,-1.465499465,-0.056106567,0.057983398,-0.894332886,33.08415222,11.32441711,-73.26176453,,,,,,,,0,36:11.9,0:08,60,0,36:15.3,1540931775,0.098775846,-0.519004024,-1.631586441,-0.079788208,0.070022583,-0.918121338,32.68231201,11.24919128,-72.97418213,,,,,,,,0,36:11.9,0:08,60,0,36:15.3,1540931775,0.080518811,-0.583206979,-1.761235514,-0.072067261,0.104156494,-0.982330322,32.19610596,10.95655823,-73.08958435,,,,,,,,0,36:11.9,0:08,60,0,36:15.3,1540931775,0.065878616,-0.591355186,-1.85226529,-0.072067261,0.104156494,-0.982330322,32.19610596,10.95655823,-73.08958435,,,,,,,,0,36:11.9,0:08,60,0,36:15.3,1540931775,0.116607307,-0.481312305,-1.903543125,-0.057800293,0.114242554,-1.011917114,31.68153381,10.8249054,-73.20054626,,,,,,,,0,36:11.9,0:08,60,0,36:15.3,1540931775,0.139982937,-0.36133237,-1.939810053,-0.040679932,0.104064941,-0.97946167,30.97047424,10.81069946,-72.92750549,,,,,,,,0,36:11.9,0:08,60,0,36:15.4,1540931775,0.042359441,-0.331986466,-2.011498088,-0.040679932,0.104064941,-0.97946167,30.45915222,10.67938232,-72.64797974,,,,,,,,0,36:11.9,0:08,60,0,36:15.4,1540931775,-0.078101993,-0.382331928,-2.11540478,-0.020843506,0.072875977,-0.938919067,29.96252441,10.77688599,-72.9055481,,,,,,,,0,36:11.9,0:08,60,0,36:15.4,1540931775,-0.119549035,-0.44205012,-2.228979812,0.014511108,0.051940918,-0.999572754,29.58073425,10.23054504,-73.02470398,,,,,,,,0,36:11.9,0:08,60,0,36:15.4,1540931775,-0.11964411,-0.469858315,-2.307187,0.014511108,0.051940918,-0.999572754,29.58073425,10.23054504,-73.02470398,,,,,,,,0,36:11.9,0:08,60,0,36:15.4,1540931775,-0.15269314,-0.511651036,-2.325435246,0.076751709,0.051330566,-1.018539429,29.14411926,10.00640869,-72.9006958,,,,,,,,0,36:11.9,0:08,60,0,36:15.4,1540931775,-0.15269314,-0.511651036,-2.325435246,0.076751709,0.051330566,-1.018539429,28.63148499,9.874954224,-72.77735901,,,,,,,,0,36:11.9,0:08,60,0,36:15.5,1540931775,-0.237871684,-0.587794806,-2.283745057,0.093719482,0.036682129,-1.027404785,27.82891846,10.03384399,-72.65898132,,,,,,,,0,36:11.9,0:08,60,0,36:15.5,1540931775,-0.224369724,-0.618055241,-2.322336658,0.057556152,0.011520386,-1.097610474,27.17271423,9.697479248,-72.62913513,,,,,,,,0,36:11.9,0:08,60,0,36:15.5,1540931775,-0.135967689,-0.651086428,-2.388792115,0.057525635,0.014541626,-1.123382568,26.53640747,9.590423584,-72.51161194,,,,,,,,0,36:11.9,0:08,60,0,36:15.5,1540931776,-0.046556051,-0.683144229,-2.430616793,0.057525635,0.014541626,-1.123382568,26.2215271,9.341674805,-72.61607361,,,,,,,,0,36:11.9,0:08,60,0,36:15.5,1540931776,0.008321846,-0.678262921,-2.430623984,0.079833984,0.032608032,-1.090133667,26.2215271,9.341674805,-72.61607361,,,,,,,,0,36:11.9,0:08,60,0,36:15.5,1540931776,0.083827523,-0.604480842,-2.399496158,0.06451416,0.045211792,-1.068054199,25.64723206,8.52204895,-72.99006653,,,,,,,,0,36:11.9,0:08,60,0,36:15.6,1540931776,0.149072573,-0.504581675,-2.38332571,0.04234314,0.046829224,-1.030410767,25.01419067,8.415344238,-72.48205566,,,,,,,,0,36:11.9,0:08,60,0,36:15.6,1540931776,0.204556338,-0.319210217,-2.349913691,0.040603638,0.029556274,-0.960327148,24.66145325,7.708099365,-72.52757263,,,,,,,,0,36:11.9,0:08,60,0,36:15.6,1540931776,0.146932723,-0.174734526,-2.36685539,0.02571106,-0.005172729,-0.866729736,24.50059509,7.274124146,-72.39637756,,,,,,,,0,36:11.9,0:08,60,0,36:15.6,1540931776,-0.152438542,-0.312892133,-2.531866449,-0.011169434,-0.00843811,-0.830795288,24.38032532,6.598480225,-72.50613403,,,,,,,,0,36:11.9,0:08,60,0,36:15.6,1540931776,-0.597156883,-0.802651186,-2.869684972,-0.067153931,0.004150391,-0.983810425,24.38032532,6.598480225,-72.50613403,,,,,,,,0,36:11.9,0:08,60,0,36:15.6,1540931776,-0.802279409,-1.051292161,-3.221184951,-0.067153931,0.004150391,-0.983810425,23.66929626,6.584289551,-72.23309326,,,,,,,,0,36:11.9,0:08,60,0,36:15.7,1540931776,-0.681961253,-0.850732163,-3.354824239,-0.031326294,0.173950195,-1.327026367,23.0316925,6.477127075,-72.27177429,,,,,,,,0,36:11.9,0:08,60,0,36:15.7,1540931776,-0.389398626,-0.422822097,-3.143407065,0.043304443,0.217773438,-1.320877075,22.46960449,5.967956543,-71.77490234,,,,,,,,0,36:11.9,0:08,60,0,36:15.7,1540931776,-0.129222701,0.07396637,-2.768055282,0.056900024,0.217788696,-1.205123901,22.54907227,5.175170898,-71.87814331,,,,,,,,0,36:11.9,0:08,60,0,36:15.7,1540931776,-0.072640116,0.211811322,-2.483049641,0.034301758,0.175262451,-1.082748413,22.69477844,4.679885864,-72.04476929,,,,,,,,0,36:11.9,0:08,60,0,36:15.7,1540931776,-0.023377761,0.091997302,-2.392186047,-0.006896973,0.138671875,-1.039428711,22.69477844,4.679885864,-72.04476929,,,,,,,,0,36:11.9,0:08,60,0,36:15.7,1540931776,0.05983111,-0.145528171,-2.428908375,-0.043655396,0.113830566,-1.019104004,22.88876343,4.252944946,-72.12815857,,,,,,,,0,36:11.9,0:08,60,0,36:15.8,1540931776,0.074877437,-0.351972957,-2.500914392,-0.05279541,0.111358643,-1.005599976,22.80264282,3.726119995,-72.15246582,,,,,,,,0,36:11.9,0:08,60,0,36:15.8,1540931776,0.067221648,-0.270778768,-2.500812393,-0.056411743,0.124206543,-1.02041626,22.39196777,3.031478882,-71.73233032,,,,,,,,0,36:11.9,0:08,60,0,36:15.8,1540931776,0.067221648,-0.270778768,-2.500812393,-0.059753418,0.13369751,-1.042984009,22.26977539,2.355651855,-72.07637024,,,,,,,,0,36:11.9,0:08,60,0,36:15.8,1540931776,0.123032716,-0.16112311,-2.467493851,-0.071594238,0.133483887,-1.045593262,22.43292236,1.780197144,-71.85475159,,,,,,,,0,36:11.9,0:08,60,0,36:15.8,1540931776,0.131061081,-0.117520239,-2.571315588,-0.084899902,0.121246338,-1.011138916,22.65596008,1.192321777,-71.86450195,,,,,,,,0,36:11.9,0:08,60,0,36:15.8,1540931776,0.131061081,-0.117520239,-2.571315588,-0.090744019,0.113204956,-0.968078613,22.65596008,1.192321777,-71.86450195,,,,,,,,0,36:11.9,0:08,60,0,36:15.9,1540931776,0.058577293,-0.106781574,-2.648386938,-0.069229126,0.109512329,-0.957168579,23.00987244,0.189590454,-72.11676025,,,,,,,,0,36:11.9,0:08,60,0,36:15.9,1540931776,0.00788056,-0.228461138,-2.662446031,-0.023620605,0.111938477,-0.982162476,22.83610535,-0.163787842,-71.82714844,,,,,,,,0,36:11.9,0:08,60,0,36:15.9,1540931776,0.00788056,-0.228461138,-2.662446031,0.000442505,0.123321533,-1.020477295,22.88406372,-1.105117798,-71.70346069,,,,,,,,0,36:11.9,0:08,60,0,36:15.9,1540931776,0.092400505,-0.294631637,-2.546894934,0.005462646,0.123718262,-1.048690796,22.78373718,-1.551422119,-71.72554016,,,,,,,,0,36:11.9,0:08,60,0,36:15.9,1540931776,0.089417231,-0.268768614,-2.515807322,0.00642395,0.112792969,-1.049591064,23.25411987,-2.188156128,-71.72366333,,,,,,,,0,36:11.9,0:08,60,0,36:16.0,1540931776,0.049455168,-0.255444286,-2.506143509,0.017562866,0.079589844,-1.023223877,23.41596985,-2.76373291,-71.65821838,,,,,,,,0,36:11.9,0:08,60,0,36:16.0,1540931776,0.08059338,-0.286388088,-2.416236789,0.038299561,0.068634033,-1.028381348,23.50309753,-3.246490479,-71.43727112,,,,,,,,0,36:11.9,0:08,60,0,36:16.0,1540931776,0.148894141,-0.295962152,-2.349871613,0.05847168,0.060348511,-1.035964966,23.78421021,-4.156219482,-71.29974365,,,,,,,,0,36:11.9,0:08,60,0,36:16.0,1540931776,0.154848703,-0.322196419,-2.295291458,0.073852539,0.042877197,-1.00730896,23.64389038,-4.360794067,-71.00274658,,,,,,,,0,36:11.9,0:08,60,0,36:16.0,1540931776,0.097860517,-0.319619012,-2.262077845,0.077301025,0.009765625,-0.941360474,23.97575378,-4.89263916,-71.08255005,,,,,,,,0,36:11.9,0:08,60,0,36:16.0,1540931776,0.029598106,-0.284463688,-2.23417564,0.070770264,0.001998901,-0.938812256,24.15621948,-5.239028931,-71.08563232,,,,,,,,0,36:11.9,0:08,60,0,36:16.1,1540931776,-0.017375262,-0.232142692,-2.222320312,0.0806427,-0.005020142,-0.962493896,24.15621948,-5.239028931,-71.08563232,,,,,,,,0,36:11.9,0:08,60,0,36:16.1,1540931776,0.007352455,-0.176247735,-2.194414911,0.111358643,-0.014648438,-0.979660034,24.46098328,-5.609786987,-71.00479126,,,,,,,,0,36:11.9,0:08,60,0,36:16.1,1540931776,0.023129288,-0.16371117,-2.121584646,0.148422241,-0.031143188,-0.965270996,24.71369934,-6.358505249,-70.86280823,,,,,,,,0,36:11.9,0:08,60,0,36:16.1,1540931776,-0.011081946,-0.186550706,-2.008093237,0.166244507,-0.051330566,-0.95980835,24.97395325,-6.487960815,-71.00958252,,,,,,,,0,36:11.9,0:08,60,0,36:16.1,1540931776,-0.028815137,-0.255959076,-1.91929306,0.144256592,-0.069381714,-0.998352051,25.45524597,-6.814346313,-70.29304504,,,,,,,,0,36:11.9,0:08,60,0,36:16.1,1540931776,0.007307181,-0.335301835,-1.909761872,0.125289917,-0.090087891,-1.032897949,25.60536194,-6.999923706,-70.52597046,,,,,,,,0,36:11.9,0:08,60,0,36:16.2,1540931776,-0.003985687,-0.415198266,-1.918424603,0.130233765,-0.102279663,-1.043792725,25.60536194,-6.999923706,-70.52597046,,,,,,,,0,36:11.9,0:08,60,0,36:16.2,1540931776,-0.07286249,-0.445980946,-1.899170481,0.13899231,-0.095474243,-1.06817627,25.60731506,-6.999725342,-70.29167175,,,,,,,,0,36:11.9,0:08,60,0,36:16.2,1540931776,-0.123910228,-0.372104324,-1.858374315,0.12437439,-0.082244873,-1.09954834,25.88562012,-7.209320068,-69.97209167,,,,,,,,0,36:11.9,0:08,60,0,36:16.2,1540931776,-0.136512572,-0.256264007,-1.855015803,0.105438232,-0.069396973,-1.125457764,26.13772583,-7.958099365,-69.90820313,,,,,,,,0,36:11.9,0:08,60,0,36:16.2,1540931776,-0.121736289,-0.141810931,-1.840956975,0.105834961,-0.048522949,-1.127761841,26.28846741,-8.143630981,-70.0630188,,,,,,,,0,36:11.9,0:08,60,0,36:16.2,1540931776,-0.087537839,-0.088165812,-1.814127491,0.103149414,-0.038833618,-1.143280029,26.83079529,-8.173049927,-70.03462219,,,,,,,,0,36:11.9,0:08,60,0,36:16.3,1540931776,0.083612073,-0.043479301,-1.76913738,0.123947144,-0.031158447,-1.135543823,26.83079529,-8.173049927,-70.03462219,,,,,,,,0,36:11.9,0:08,60,0,36:16.3,1540931776,0.251664462,0.015173627,-1.693074303,0.157577515,-0.047302246,-1.034683228,27.20050049,-8.246444702,-70.17337036,,,,,,,,0,36:11.9,0:08,60,0,36:16.3,1540931776,0.231635094,0.029191175,-1.634154793,0.182235718,-0.081466675,-0.92048645,27.66696167,-8.492385864,-69.53266907,,,,,,,,0,36:11.9,0:08,60,0,36:16.3,1540931776,0.051101534,0.01986372,-1.573083716,0.185684204,-0.093170166,-0.860961914,28.21713257,-8.91217041,-69.67449951,,,,,,,,0,36:11.9,0:08,60,0,36:16.3,1540931776,-0.118827851,0.014795191,-1.520576832,0.167800903,-0.099990845,-0.892166138,28.41812134,-9.029174805,-69.51179504,,,,,,,,0,36:11.9,0:08,60,0,36:16.3,1540931776,-0.147899184,-0.046598927,-1.515291256,0.164123535,-0.101104736,-0.959991455,28.96617126,-8.748733521,-69.39347839,,,,,,,,0,36:11.9,0:08,60,0,36:16.4,1540931776,-0.068237111,-0.087533045,-1.477880767,0.177200317,-0.10017395,-0.992660522,28.96617126,-8.748733521,-69.39347839,,,,,,,,0,36:11.9,0:08,60,0,36:16.4,1540931776,-0.015399995,-0.059123774,-1.406110706,0.198760986,-0.123458862,-0.962219238,29.39396667,-9.143966675,-69.38493347,,,,,,,,0,36:11.9,0:08,60,0,36:16.4,1540931776,-0.07205422,-0.016619989,-1.350359825,0.222076416,-0.155303955,-0.924728394,29.95228577,-8.94442749,-69.73742676,,,,,,,,0,36:11.9,0:08,60,0,36:16.4,1540931776,-0.217696375,-0.104530937,-1.196229111,0.251449585,-0.174621582,-0.955322266,30.2640686,-9.005233765,-69.41049194,,,,,,,,0,36:11.9,0:08,60,0,36:16.4,1540931776,-0.217696375,-0.104530937,-1.196229111,0.264068604,-0.172409058,-1.020523071,30.51141357,-9.054077148,-69.39884949,,,,,,,,0,36:11.9,0:08,60,0,36:16.4,1540931776,-0.127788323,-0.262788486,-1.056163083,0.244415283,-0.16545105,-1.074707031,30.72906494,-8.942077637,-69.53897095,,,,,,,,0,36:11.9,0:08,60,0,36:16.5,1540931776,-0.087818802,-0.156217035,-1.024986255,0.215148926,-0.162490845,-1.092346191,30.9344635,-8.74937439,-69.44255066,,,,,,,,0,36:11.9,0:08,60,0,36:16.5,1540931776,-0.055667257,0.016377642,-0.986230071,0.192871094,-0.164199829,-1.090286255,30.9344635,-8.74937439,-69.44255066,,,,,,,,0,36:11.9,0:08,60,0,36:16.5,1540931776,-0.044491035,0.100318881,-0.906885447,0.189331055,-0.171020508,-1.077880859,31.2010498,-8.568954468,-69.42132568,,,,,,,,0,36:11.9,0:08,60,0,36:16.5,1540931777,-0.014439127,0.065076205,-0.821267215,0.208770752,-0.18536377,-1.0652771,31.633255,-8.65447998,-69.47906494,,,,,,,,0,36:11.9,0:08,60,0,36:16.5,1540931777,0.039466449,-0.020003802,-0.772125501,0.203948975,-0.190795898,-1.06010437,31.92382813,-8.944747925,-69.39601135,,,,,,,,0,36:11.9,0:08,60,0,36:16.5,1540931777,0.094583764,-0.093120623,-0.742244834,0.183197021,-0.191314697,-1.050079346,32.23497009,-9.005615234,-69.14717102,,,,,,,,0,36:11.9,0:08,60,0,36:16.6,1540931777,0.098211522,-0.154802896,-0.743392656,0.164825439,-0.19102478,-1.036437988,32.06739807,-8.739837646,-69.30250549,,,,,,,,0,36:11.9,0:08,60,0,36:16.6,1540931777,0.072819346,-0.172788022,-0.783030613,0.144622803,-0.191802979,-1.0206604,32.06739807,-8.739837646,-69.30250549,,,,,,,,0,36:11.9,0:08,60,0,36:16.6,1540931777,0.042105109,-0.19081203,-0.80017924,0.118179321,-0.176025391,-1.018493652,32.29859924,-8.708374023,-69.52293396,,,,,,,,0,36:11.9,0:08,60,0,36:16.6,1540931777,0.025837723,-0.231859865,-0.774525276,0.103225708,-0.148300171,-1.023406982,32.37528992,-8.801010132,-69.44415283,,,,,,,,0,36:11.9,0:08,60,0,36:16.6,1540931777,0.034473022,-0.21989082,-0.813063613,0.101577759,-0.13873291,-1.040740967,32.55575562,-9.147415161,-69.44723511,,,,,,,,0,36:11.9,0:08,60,0,36:16.6,1540931777,-0.086293077,-0.079912942,-0.906026844,0.076309204,-0.139221191,-1.053726196,32.82952881,-9.357452393,-69.67433167,,,,,,,,0,36:11.9,0:08,60,0,36:16.7,1540931777,-0.086293077,-0.079912942,-0.906026844,0.045394897,-0.131149292,-1.013671875,32.97309875,-9.152511597,-69.58085632,,,,,,,,0,36:11.9,0:08,60,0,36:16.7,1540931777,-0.513885428,0.186060684,-0.935579943,0.034591675,-0.135559082,-0.970840454,32.97309875,-9.152511597,-69.58085632,,,,,,,,0,36:11.9,0:08,60,0,36:16.7,1540931777,-0.466362916,0.001255414,-0.816953693,0.045196533,-0.124313354,-1.004074097,33.36711121,-8.686904907,-69.69818115,,,,,,,,0,36:11.9,0:08,60,0,36:16.7,1540931777,-0.466362916,0.001255414,-0.816953693,0.04914856,-0.13432312,-1.078125,33.60014343,-8.346008301,-70.29728699,,,,,,,,0,36:11.9,0:08,60,0,36:16.7,1540931777,0.061839932,-0.095038099,-0.725105528,-0.003250122,-0.115692139,-1.098464966,33.76898193,-8.611633301,-69.98576355,,,,,,,,0,36:11.9,0:08,60,0,36:16.7,1540931777,0.090059053,-0.006698383,-0.704656978,-0.037231445,-0.127807617,-1.028640747,33.753479,-8.531265259,-70.13975525,,,,,,,,0,36:11.9,0:08,60,0,36:16.8,1540931777,0.090059053,-0.006698383,-0.704656978,-0.038238525,-0.138366699,-0.944564819,34.08911133,-8.753494263,-70.36392212,,,,,,,,0,36:11.9,0:08,60,0,36:16.8,1540931777,-0.187654853,-0.013289706,-0.553606742,-0.003662109,-0.140792847,-0.905593872,34.19599915,-8.697677612,-70.66825867,,,,,,,,0,36:11.9,0:08,60,0,36:16.8,1540931777,-0.187654853,-0.013289706,-0.553606742,0.010848999,-0.151351929,-0.934814453,34.19599915,-8.697677612,-70.66825867,,,,,,,,0,36:11.9,0:08,60,0,36:16.8,1540931777,-0.122702218,-0.218279607,-0.297939283,0.032775879,-0.162155151,-0.988189697,34.08895874,-8.444274902,-70.97689819,,,,,,,,0,36:11.9,0:08,60,0,36:16.8,1540931777,-0.004189951,-0.259873656,-0.188791223,0.035629272,-0.180206299,-0.998519897,34.26351929,-8.400085449,-70.57545471,,,,,,,,0,36:11.9,0:08,60,0,36:16.8,1540931777,-0.004189951,-0.259873656,-0.188791223,0.019042969,-0.194091797,-0.988571167,34.2416687,-8.629592896,-70.89744568,,,,,,,,0,36:11.9,0:08,60,0,36:16.9,1540931777,0.114062923,-0.237324671,-0.160949472,-0.00402832,-0.202926636,-0.963867188,33.90670776,-8.407318115,-70.59513855,,,,,,,,0,36:11.9,0:08,60,0,36:16.9,1540931777,0.098217647,-0.129037345,-0.154386911,-0.001419067,-0.21194458,-0.937835693,33.81388855,-8.234375,-70.90597534,,,,,,,,0,36:11.9,0:08,60,0,36:16.9,1540931777,0.098217647,-0.129037345,-0.154386911,0.020111084,-0.217941284,-0.914489746,33.81388855,-8.234375,-70.90597534,,,,,,,,0,36:11.9,0:08,60,0,36:16.9,1540931777,0.024356472,0.120902187,0.001214135,0.04234314,-0.218948364,-0.892578125,33.84423828,-8.395172119,-70.6761322,,,,,,,,0,36:11.9,0:08,60,0,36:16.9,1540931777,0.034610442,-0.001722266,0.077091589,0.055160522,-0.227996826,-0.888580322,34.00982666,-8.661117554,-70.75508118,,,,,,,,0,36:11.9,0:08,60,0,36:16.9,1540931777,0.12212298,-0.220000009,0.085368161,0.040664673,-0.240463257,-0.917160034,34.0587616,-8.592697144,-70.59378052,,,,,,,,0,36:11.9,0:08,60,0,36:17.0,1540931777,0.226822495,-0.30417321,0.056325857,0.016311646,-0.251724243,-0.955108643,33.74519348,-8.84135437,-70.54202271,,,,,,,,0,36:11.9,0:08,60,0,36:17.0,1540931777,0.200445749,-0.205330785,0.015761386,-0.015335083,-0.291763306,-0.888473511,33.57191467,-8.885406494,-70.78726196,,,,,,,,0,36:11.9,0:08,60,0,36:17.0,1540931777,0.010138388,-0.042280079,-5.46E-05,-0.015335083,-0.291763306,-0.888473511,33.57191467,-8.885406494,-70.78726196,,,,,,,,0,36:11.9,0:08,60,0,36:17.0,1540931777,-0.220911609,0.060420201,0.026899259,-0.003341675,-0.305618286,-0.859008789,33.49719238,-8.792572021,-70.63175964,,,,,,,,0,36:11.9,0:08,60,0,36:17.0,1540931777,-0.399475229,0.138817006,0.054881358,0.000228882,-0.298370361,-0.959655762,33.36567688,-8.377792358,-70.46734619,,,,,,,,0,36:11.9,0:08,60,0,36:17.0,1540931777,-0.399475229,0.138817006,0.054881358,0.000228882,-0.298370361,-0.959655762,33.36567688,-8.377792358,-70.46734619,,,,,,,,0,36:11.9,0:08,60,0,36:17.1,1540931777,-0.408030634,0.143998718,0.131991856,-0.006774902,-0.289901733,-1.052841187,33.36878967,-8.068206787,-70.68983459,,,,,,,,0,36:11.9,0:08,60,0,36:17.1,1540931777,-0.042853191,-0.128126811,0.22687496,0.014312744,-0.216461182,-1.291351318,33.55039978,-8.105239868,-71.14968872,,,,,,,,0,36:11.9,0:08,60,0,36:17.1,1540931777,0.31275285,-0.407748871,0.326034567,0.014312744,-0.216461182,-1.291351318,33.55039978,-8.105239868,-71.14968872,,,,,,,,0,36:11.9,0:08,60,0,36:17.1,1540931777,0.372272902,-0.450811387,0.403069165,-0.021255493,-0.18572998,-1.172821045,32.89204407,-7.741378784,-70.85971069,,,,,,,,0,36:11.9,0:08,60,0,36:17.1,1540931777,0.188513456,-0.344589876,0.51782664,-0.052856445,-0.184432983,-1.138336182,32.6055603,-8.151153564,-70.96861267,,,,,,,,0,36:11.9,0:08,60,0,36:17.1,1540931777,0.063554742,-0.155627411,0.627317715,-0.052856445,-0.184432983,-1.138336182,32.48188782,-8.126724243,-70.97444153,,,,,,,,0,36:11.9,0:08,60,0,36:17.2,1540931777,0.06608075,0.009624664,0.679993177,-0.092147827,-0.179580688,-1.216369629,32.15670776,-8.29460144,-70.608078,,,,,,,,0,36:11.9,0:08,60,0,36:17.2,1540931777,0.11472392,0.137800743,0.697273364,-0.092147827,-0.179580688,-1.216369629,31.92485046,-8.326126099,-70.46572876,,,,,,,,0,36:11.9,0:08,60,0,36:17.2,1540931777,0.091748829,0.163928484,0.710161466,-0.087127686,-0.182769775,-1.221618652,31.84753418,-8.233551025,-70.62261963,,,,,,,,0,36:11.9,0:08,60,0,36:17.2,1540931777,-0.005494101,0.014779479,0.644678329,-0.114608765,-0.159973145,-1.217437744,31.84753418,-8.233551025,-70.62261963,,,,,,,,0,36:11.9,0:08,60,0,36:17.2,1540931777,-0.06269454,-0.27487471,0.456933995,-0.140869141,-0.109130859,-1.25213623,31.49250793,-7.931350708,-71.02098083,,,,,,,,0,36:11.9,0:08,60,0,36:17.2,1540931777,-0.025045166,-0.469017555,0.229662757,-0.153289795,-0.034332275,-1.254089355,31.10925293,-7.777389526,-70.8019104,,,,,,,,0,36:11.9,0:08,60,0,36:17.3,1540931777,-0.035962262,-0.435804741,0.064793644,-0.137435913,0.015914917,-1.230178833,31.10224915,-8.087341309,-71.04801941,,,,,,,,0,36:11.9,0:08,60,0,36:17.3,1540931777,-0.029617014,-0.10594907,0.058773835,-0.105453491,0.048309326,-1.197006226,31.28904724,-8.123840332,-70.88308716,,,,,,,,0,36:11.9,0:08,60,0,36:17.3,1540931777,0.178231523,0.378218942,0.199603924,-0.067382813,0.075881958,-1.136428833,31.42692566,-8.228759766,-70.87948608,,,,,,,,0,36:11.9,0:08,60,0,36:17.3,1540931777,0.440205881,0.689707323,0.386255031,-0.041809082,0.070709229,-1.025939941,31.42692566,-8.228759766,-70.87948608,,,,,,,,0,36:11.9,0:08,60,0,36:17.3,1540931777,0.542138105,0.428159604,0.361278042,-0.036071777,0.034164429,-0.906555176,31.63232422,-8.036071777,-70.78309631,,,,,,,,0,36:11.9,0:08,60,0,36:17.3,1540931777,0.542138105,0.428159604,0.361278042,-0.0234375,-0.003982544,-0.836166382,31.80706787,-8.692276001,-70.87606812,,,,,,,,0,36:11.9,0:08,60,0,36:17.4,1540931777,0.451535501,0.079076177,0.238791008,0.00617981,-0.051101685,-0.817764282,32.04870605,-9.050949097,-70.95433044,,,,,,,,0,36:11.9,0:08,60,0,36:17.4,1540931777,0.236021586,-0.336671232,0.046645799,0.012741089,-0.050094604,-0.825881958,31.65534973,-9.51651001,-70.75889587,,,,,,,,0,36:11.9,0:08,60,0,36:17.4,1540931777,0.236021586,-0.336671232,0.046645799,0.006896973,-0.046157837,-0.851715088,31.59416199,-9.504226685,-70.68371582,,,,,,,,0,36:11.9,0:08,60,0,36:17.4,1540931777,0.178810761,-0.259255004,0.028550418,-0.009963989,-0.045013428,-0.862304688,31.23797607,-9.511398315,-70.62528992,,,,,,,,0,36:11.9,0:08,60,0,36:17.4,1540931777,0.031781366,0.012721388,-0.011771438,-0.005905151,-0.055297852,-0.859939575,31.23797607,-9.511398315,-70.62528992,,,,,,,,0,36:11.9,0:08,60,0,36:17.4,1540931777,0.031781366,0.012721388,-0.011771438,0.003494263,-0.069213867,-0.8387146,31.07366943,-9.245300293,-70.39015198,,,,,,,,0,36:11.9,0:08,60,0,36:17.5,1540931777,-0.156344068,0.058125621,-0.095197356,-0.010467529,-0.095199585,-0.825302124,31.45692444,-9.399246216,-70.60919189,,,,,,,,0,36:11.9,0:08,60,0,36:17.5,1540931777,-0.156344068,0.058125621,-0.095197356,-0.010467529,-0.095199585,-0.825302124,31.45692444,-9.399246216,-70.60919189,,,,,,,,0,36:11.9,0:08,60,0,36:17.5,1540931777,-0.149141815,0.027972779,-0.145566787,0.012207031,-0.112442017,-0.88911438,31.70492554,-9.448028564,-70.51947021,,,,,,,,0,36:11.9,0:08,60,0,36:17.5,1540931778,0.019645873,-0.037023265,0.014941665,0.047607422,-0.105453491,-0.889907837,31.59986877,-9.194412231,-70.59379578,,,,,,,,0,36:11.9,0:08,60,0,36:17.5,1540931778,0.019645873,-0.037023265,0.014941665,0.076919556,-0.110687256,-0.895294189,31.59986877,-9.194412231,-70.59379578,,,,,,,,0,36:11.9,0:08,60,0,36:17.5,1540931778,0.08178328,-0.127860228,0.131538586,0.06867981,-0.125198364,-0.897888184,31.5380249,-9.182189941,-70.59671021,,,,,,,,0,36:11.9,0:08,60,0,36:17.6,1540931778,0.19759084,-0.230024148,0.247037752,0.046173096,-0.142028809,-0.903488159,31.18185425,-9.189361572,-70.53829956,,,,,,,,0,36:11.9,0:08,60,0,36:17.6,1540931778,0.236699893,-0.220656478,0.244898169,0.034515381,-0.155456543,-0.930679321,31.08721924,-9.32585144,-70.47045898,,,,,,,,0,36:11.9,0:08,60,0,36:17.6,1540931778,0.236699893,-0.220656478,0.244898169,0.034515381,-0.155456543,-0.930679321,31.08721924,-9.32585144,-70.47045898,,,,,,,,0,36:11.9,0:08,60,0,36:17.6,1540931778,0.123001823,-0.069611302,0.34256028,0.049133301,-0.181030273,-0.94442749,30.75439453,-9.803771973,-70.42832947,,,,,,,,0,36:11.9,0:08,60,0,36:17.6,1540931778,0.123001823,-0.069611302,0.34256028,0.019180298,-0.195739746,-0.954437256,30.54244995,-9.605957031,-70.19830322,,,,,,,,0,36:11.9,0:08,60,0,36:17.6,1540931778,0.218340061,-0.158781393,0.233199435,-0.024887085,-0.207504272,-1.017059326,30.54244995,-9.605957031,-70.19830322,,,,,,,,0,36:11.9,0:08,60,0,36:17.7,1540931778,0.342461211,-0.226402781,0.075669461,-0.043716431,-0.208816528,-1.081558228,30.3717804,-9.649749756,-70.13116455,,,,,,,,0,36:11.9,0:08,60,0,36:17.7,1540931778,0.342461211,-0.226402781,0.075669461,-0.050140381,-0.203735352,-1.091171265,30.21743774,-10.47424316,-70.32637024,,,,,,,,0,36:11.9,0:08,60,0,36:17.7,1540931778,0.068352693,-0.045625276,-0.114654944,-0.051513672,-0.210784912,-1.037124634,30.17420959,-10.2328186,-70.39779663,,,,,,,,0,36:11.9,0:08,60,0,36:17.7,1540931778,-0.123443908,-0.052120193,-0.19386055,-0.063110352,-0.208984375,-1.035903931,30.34112549,-10.49867249,-70.32055664,,,,,,,,0,36:11.9,0:08,60,0,36:17.7,1540931778,-0.128932949,-0.092851644,-0.273153242,-0.081039429,-0.202728271,-1.12109375,30.0369873,-10.12785339,-70.32328796,,,,,,,,0,36:11.9,0:08,60,0,36:17.7,1540931778,0.018041318,-0.050989415,-0.275278711,-0.098342896,-0.173782349,-1.215362549,30.0369873,-10.12785339,-70.32328796,,,,,,,,0,36:11.9,0:08,60,0,36:17.8,1540931778,0.15920883,0.051387291,-0.24948573,-0.096115112,-0.147445679,-1.204376221,30.23150635,-10.24546814,-70.94154358,,,,,,,,0,36:11.9,0:08,60,0,36:17.8,1540931778,0.109795208,0.079752087,-0.19161231,-0.096115112,-0.147445679,-1.204376221,30.46154785,-10.52340698,-70.7052002,,,,,,,,0,36:11.9,0:08,60,0,36:17.8,1540931778,-0.034601653,-0.021649103,-0.183135734,-0.091827393,-0.164230347,-1.139678955,30.44670105,-10.44297791,-70.78108215,,,,,,,,0,36:11.9,0:08,60,0,36:17.8,1540931778,-0.139231393,-0.188810398,-0.324670496,-0.139007568,-0.158752441,-1.178710938,30.56465149,-10.77720642,-70.86517334,,,,,,,,0,36:11.9,0:08,60,0,36:17.8,1540931778,-0.191702325,-0.43400977,-0.550912156,-0.139007568,-0.158752441,-1.178710938,30.38290405,-10.43096924,-71.01828003,,,,,,,,0,36:11.9,0:08,60,0,36:17.9,1540931778,0.019424032,-0.409000291,-0.549861272,-0.136764526,-0.054168701,-1.241012573,30.26182556,-10.40628052,-70.71170044,,,,,,,,0,36:11.9,0:08,60,0,36:17.9,1540931778,0.169452679,-0.01940752,-0.421984266,-0.120559692,-0.017303467,-1.206253052,30.15626526,-10.4619751,-70.25119019,,,,,,,,0,36:11.9,0:08,60,0,36:17.9,1540931778,0.185284639,0.329487622,-0.343384795,-0.15032959,-0.024414063,-0.981964111,30.49513245,-10.68386841,-70.08488464,,,,,,,,0,36:11.9,0:08,60,0,36:17.9,1540931778,0.105531487,0.367070684,-0.354027852,-0.15032959,-0.024414063,-0.981964111,31.20487976,-10.6697998,-70.51411438,,,,,,,,0,36:11.9,0:08,60,0,36:17.9,1540931778,0.047772849,0.158037039,-0.415310917,-0.135391235,-0.043304443,-0.933166504,31.42776489,-10.94842529,-71.13684082,,,,,,,,0,36:11.9,0:08,60,0,36:17.9,1540931778,0.036729519,-0.134604684,-0.507763353,-0.118499756,-0.045272827,-0.947128296,31.42776489,-10.94842529,-71.13684082,,,,,,,,0,36:11.9,0:08,60,0,36:18.0,1540931778,0.055466988,-0.272106088,-0.518646095,-0.118499756,-0.045272827,-0.947128296,31.36917114,-10.93589783,-70.74925232,,,,,,,,0,36:11.9,0:08,60,0,36:18.0,1540931778,0.082124431,-0.22505389,-0.447917596,-0.118606567,-0.035186768,-0.935958862,31.44506836,-10.71936035,-71.36154175,,,,,,,,0,36:11.9,0:08,60,0,36:18.0,1540931778,0.122849757,-0.03315822,-0.387722433,-0.136108398,-0.072463989,-0.897216797,31.78082275,-11.25082397,-70.97276306,,,,,,,,0,36:11.9,0:08,60,0,36:18.0,1540931778,0.158384848,0.155743791,-0.377860214,-0.136108398,-0.072463989,-0.897216797,31.99278259,-11.44862366,-71.20277405,,,,,,,,0,36:11.9,0:08,60,0,36:18.0,1540931778,0.156948871,0.222868766,-0.390627409,-0.103790283,-0.12387085,-0.818267822,32.56283569,-11.63908386,-71.25692749,,,,,,,,0,36:11.9,0:08,60,0,36:18.0,1540931778,0.135158088,0.152721902,-0.37785835,-0.074584961,-0.140426636,-0.78968811,32.56283569,-11.63908386,-71.25692749,,,,,,,,0,36:11.9,0:08,60,0,36:18.1,1540931778,0.125984031,-0.023672306,-0.333097537,-0.074584961,-0.140426636,-0.78968811,32.5042572,-11.6265564,-70.86933899,,,,,,,,0,36:11.9,0:08,60,0,36:18.1,1540931778,0.178858964,-0.215826037,-0.283016792,-0.07623291,-0.147827148,-0.799499512,32.68147278,-11.97325134,-71.26290894,,,,,,,,0,36:11.9,0:08,60,0,36:18.1,1540931778,0.243001199,-0.34301142,-0.277834813,-0.094406128,-0.165863037,-0.798721313,32.62615967,-12.3515625,-71.59223938,,,,,,,,0,36:11.9,0:08,60,0,36:18.1,1540931778,0.285607782,-0.425322805,-0.352906928,-0.094406128,-0.165863037,-0.798721313,32.84136963,-12.54905701,-71.4317627,,,,,,,,0,36:11.9,0:08,60,0,36:18.1,1540931778,0.312647389,-0.263023909,-0.431957006,-0.150512695,-0.172073364,-0.800842285,32.73382568,-12.60491943,-71.20553589,,,,,,,,0,36:11.9,0:08,60,0,36:18.1,1540931778,0.203778695,-0.071598553,-0.435978113,-0.139038086,-0.194320679,-0.777145386,32.71524048,-12.83413696,-71.13700867,,,,,,,,0,36:11.9,0:08,60,0,36:18.2,1540931778,0.006952715,0.077350981,-0.426109237,-0.131774902,-0.215301514,-0.772323608,32.71524048,-12.83413696,-71.13700867,,,,,,,,0,36:11.9,0:08,60,0,36:18.2,1540931778,-0.156781359,0.154665211,-0.43347048,-0.124649048,-0.212371826,-0.800476074,32.91804504,-12.64169312,-71.35299683,,,,,,,,0,36:11.9,0:08,60,0,36:18.2,1540931778,-0.242295195,0.143592586,-0.434534413,-0.118392944,-0.212844849,-0.856155396,33.41078186,-12.73956299,-71.56401062,,,,,,,,0,36:11.9,0:08,60,0,36:18.2,1540931778,-0.270009381,0.11568106,-0.420640968,-0.121917725,-0.220596313,-0.910476685,33.64068604,-12.70823669,-71.94064331,,,,,,,,0,36:11.9,0:08,60,0,36:18.2,1540931778,-0.267984579,0.125079089,-0.341386093,-0.120056152,-0.249282837,-0.958267212,33.8609314,-12.59597778,-71.76834106,,,,,,,,0,36:11.9,0:08,60,0,36:18.2,1540931778,-0.177784379,0.20923205,-0.234217827,-0.13041687,-0.279403687,-1.000411987,34.2306366,-12.6693573,-71.90708923,,,,,,,,0,36:11.9,0:08,60,0,36:18.3,1540931778,-0.177784379,0.20923205,-0.234217827,-0.116867065,-0.295043945,-1.026397705,34.26344299,-12.5206604,-71.97782898,,,,,,,,0,36:11.9,0:08,60,0,36:18.3,1540931778,-0.184206592,0.101995874,-0.179734611,-0.090698242,-0.296859741,-1.059570313,34.26344299,-12.5206604,-71.97782898,,,,,,,,0,36:11.9,0:08,60,0,36:18.3,1540931778,-0.23823707,-0.243776179,-0.136242794,-0.072982788,-0.272583008,-1.121276855,34.2460022,-12.44049072,-72.36608887,,,,,,,,0,36:11.9,0:08,60,0,36:18.3,1540931778,-0.23823707,-0.243776179,-0.136242794,-0.069717407,-0.233322144,-1.216873169,34.31109619,-12.45237732,-71.97268677,,,,,,,,0,36:11.9,0:08,60,0,36:18.3,1540931778,-0.198618554,-0.281098251,-0.094534762,-0.035583496,-0.196472168,-1.308609009,34.30589294,-12.45289612,-72.59747314,,,,,,,,0,36:11.9,0:08,60,0,36:18.3,1540931778,0.286530567,0.151763431,0.30959727,0.001571655,-0.156204224,-1.361968994,34.41485596,-12.70613098,-72.05453491,,,,,,,,0,36:11.9,0:08,60,0,36:18.4,1540931778,0.286530567,0.151763431,0.30959727,0.016494751,-0.134292603,-1.301879883,34.08383179,-12.87458801,-72.3910675,,,,,,,,0,36:11.9,0:08,60,0,36:18.4,1540931778,0.248770138,0.021141771,0.607144802,0.028457642,-0.155227661,-1.214370728,34.08383179,-12.87458801,-72.3910675,,,,,,,,0,36:11.9,0:08,60,0,36:18.4,1540931778,-0.027976774,-0.490658136,0.509131686,0.016159058,-0.184768677,-1.152099609,33.81983948,-13.05476379,-72.09989929,,,,,,,,0,36:11.9,0:08,60,0,36:18.4,1540931778,-0.027976774,-0.490658136,0.509131686,-0.032867432,-0.180007935,-1.213088989,33.33169556,-13.34757996,-72.44958496,,,,,,,,0,36:11.9,0:08,60,0,36:18.4,1540931778,-0.158111608,-1.208687645,-0.030366162,-0.108322144,-0.092529297,-1.342224121,32.63729858,-13.13275146,-72.47937012,,,,,,,,0,36:11.9,0:08,60,0,36:18.4,1540931778,0.070543143,-0.886562332,0.01066889,-0.14680481,0.035446167,-1.39100647,32.07260132,-13.64219666,-72.2948761,,,,,,,,0,36:11.9,0:08,60,0,36:18.5,1540931778,0.070543143,-0.886562332,0.01066889,-0.09437561,0.09942627,-1.355484009,31.62310791,-13.78573608,-72.01245117,,,,,,,,0,36:11.9,0:08,60,0,36:18.5,1540931778,0.51967807,0.12024705,0.598634937,-0.06237793,0.13218689,-1.240463257,31.5922699,-13.93423462,-71.70742798,,,,,,,,0,36:11.9,0:08,60,0,36:18.5,1540931778,0.51967807,0.12024705,0.598634937,-0.06237793,0.13218689,-1.240463257,31.5922699,-13.93423462,-71.70742798,,,,,,,,0,36:11.9,0:08,60,0,36:18.5,1540931779,0.531519816,0.284036783,0.724124952,-0.085784912,0.012802124,-0.954406738,31.50416565,-14.46122742,-71.96600342,,,,,,,,0,36:11.9,0:08,60,0,36:18.5,1540931779,0.385892841,0.130244024,0.583687413,-0.114944458,-0.056808472,-0.832214355,31.2414856,-14.64128113,-71.51864624,,,,,,,,0,36:11.9,0:08,60,0,36:18.5,1540931779,0.137549075,-0.202771754,0.338109073,-0.156921387,-0.133239746,-0.775680542,30.92724609,-14.88999939,-71.54499817,,,,,,,,0,36:11.9,0:08,60,0,36:18.6,1540931779,-0.046999467,-0.48441835,0.076515814,-0.156921387,-0.133239746,-0.775680542,30.85971069,-15.18760681,-71.63780212,,,,,,,,0,36:11.9,0:08,60,0,36:18.6,1540931779,-0.080716951,-0.512758378,-0.058439608,-0.153518677,-0.123931885,-0.829116821,30.270401,-15.22640991,-71.59324646,,,,,,,,0,36:11.9,0:08,60,0,36:18.6,1540931779,-0.012142417,-0.294837233,-0.081746262,-0.118209839,-0.068771362,-0.888763428,30.270401,-15.22640991,-71.59324646,,,,,,,,0,36:11.9,0:08,60,0,36:18.6,1540931779,0.059123241,0.00063836,-0.031068437,-0.118209839,-0.068771362,-0.888763428,30.20921326,-15.21411133,-71.51806641,,,,,,,,0,36:11.9,0:08,60,0,36:18.6,1540931779,0.048542769,0.231934433,0.036683712,-0.093154907,-0.061828613,-0.852600098,30.272995,-15.22615051,-71.28085327,,,,,,,,0,36:11.9,0:08,60,0,36:18.6,1540931779,-0.022932214,0.26171683,0.063509201,-0.076889038,-0.073516846,-0.788970947,30.35752869,-15.70916748,-71.37229919,,,,,,,,0,36:11.9,0:08,60,0,36:18.7,1540931779,-0.076442044,0.166202824,0.004506868,-0.078048706,-0.100021362,-0.760772705,30.48248291,-15.73345947,-71.21028137,,,,,,,,0,36:11.9,0:08,60,0,36:18.7,1540931779,-0.076442044,0.166202824,0.004506868,-0.082199097,-0.118865967,-0.777603149,30.48248291,-15.73345947,-71.21028137,,,,,,,,0,36:11.9,0:08,60,0,36:18.7,1540931779,-0.071024642,-0.05421903,-0.065372349,-0.063934326,-0.127441406,-0.833023071,30.29438782,-15.69706726,-71.53140259,,,,,,,,0,36:11.9,0:08,60,0,36:18.7,1540931779,-0.039614788,-0.064482054,-0.008636898,-0.063934326,-0.127441406,-0.833023071,30.29502869,-15.69700623,-71.45330811,,,,,,,,0,36:11.9,0:08,60,0,36:18.7,1540931779,-0.044465469,-0.023287213,-0.020364394,-0.113342285,-0.1590271,-0.857040405,30.21394348,-15.91407776,-71.46580505,,,,,,,,0,36:11.9,0:08,60,0,36:18.7,1540931779,-0.118721591,0.02740233,-0.075968801,-0.11529541,-0.176971436,-0.867126465,30.50386047,-16.20437622,-71.46084595,,,,,,,,0,36:11.9,0:08,60,0,36:18.8,1540931779,-0.206564362,0.088003892,-0.143337189,-0.11529541,-0.176971436,-0.867126465,30.28361511,-16.31666565,-71.63311768,,,,,,,,0,36:11.9,0:08,60,0,36:18.8,1540931779,-0.245263554,0.111256218,-0.185062798,-0.061935425,-0.196594238,-0.930725098,30.48641968,-16.1242218,-71.84910583,,,,,,,,0,36:11.9,0:08,60,0,36:18.8,1540931779,-0.243388156,0.087434242,-0.182950911,-0.035049438,-0.210128784,-0.972351074,30.48641968,-16.1242218,-71.84910583,,,,,,,,0,36:11.9,0:08,60,0,36:18.8,1540931779,-0.221497771,0.071893099,-0.135857435,-0.032852173,-0.20954895,-0.999511719,30.30155945,-16.08752441,-71.77973938,,,,,,,,0,36:11.9,0:08,60,0,36:18.8,1540931779,-0.209434983,0.133201997,-0.079029039,-0.040252686,-0.213012695,-1.006103516,30.58824158,-16.37815857,-72.16526794,,,,,,,,0,36:11.9,0:08,60,0,36:18.8,1540931779,-0.219957665,0.145033622,-0.037248303,-0.040252686,-0.213012695,-1.006103516,30.69706726,-16.32215881,-72.23532104,,,,,,,,0,36:11.9,0:08,60,0,36:18.9,1540931779,-0.213555159,0.037982802,-0.059869992,-0.063430786,-0.212905884,-1.097976685,30.41952515,-16.42175293,-71.86383057,,,,,,,,0,36:11.9,0:08,60,0,36:18.9,1540931779,-0.196075768,-0.131762025,-0.118980983,-0.071289063,-0.212142944,-1.155639648,30.37124634,-16.49009705,-71.947052,,,,,,,,0,36:11.9,0:08,60,0,36:18.9,1540931779,-0.107683321,-0.145675444,-0.097602191,-0.087738037,-0.201385498,-1.186386108,30.13548279,-16.52200317,-72.27330017,,,,,,,,0,36:11.9,0:08,60,0,36:18.9,1540931779,0.040170323,-0.104134392,-0.02155536,-0.110336304,-0.180389404,-1.236999512,29.8888092,-16.47309875,-72.20684814,,,,,,,,0,36:11.9,0:08,60,0,36:18.9,1540931779,0.237982472,-0.018765432,0.064171263,-0.127075195,-0.18963623,-1.203567505,29.80525208,-16.99967957,-71.91876221,,,,,,,,0,36:11.9,0:08,60,0,36:19.0,1540931779,0.325374103,-0.031510522,0.066276226,-0.153320313,-0.194534302,-1.159362793,29.74751282,-17.68746948,-71.94750977,,,,,,,,0,36:11.9,0:08,60,0,36:19.0,1540931779,0.325374103,-0.031510522,0.066276226,-0.153320313,-0.194534302,-1.159362793,29.74751282,-17.68746948,-71.94750977,,,,,,,,0,36:11.9,0:08,60,0,36:19.0,1540931779,0.247189552,-0.066131883,-0.01406229,-0.17338562,-0.206497192,-1.113937378,29.59300232,-17.81155396,-71.64830017,,,,,,,,0,36:11.9,0:08,60,0,36:19.0,1540931779,-0.187293195,-0.379494064,-0.399854463,-0.204284668,-0.194335938,-1.116256714,29.60655212,-17.89212036,-71.72860718,,,,,,,,0,36:11.9,0:08,60,0,36:19.0,1540931779,-0.187293195,-0.379494064,-0.399854463,-0.222839355,-0.150817871,-1.185760498,29.49900818,-17.94798279,-71.50236511,,,,,,,,0,36:11.9,0:08,60,0,36:19.0,1540931779,-0.10055537,-0.274823577,-0.54645429,-0.223617554,-0.067901611,-1.252410889,29.49900818,-17.94798279,-71.50236511,,,,,,,,0,36:11.9,0:08,60,0,36:19.0,1540931779,0.0097746,0.034192325,-0.459359868,-0.189712524,-0.019958496,-1.251586914,29.35986328,-17.84320068,-71.66213989,,,,,,,,0,36:11.9,0:08,60,0,36:19.1,1540931779,0.0097746,0.034192325,-0.459359868,-0.189147949,0.008529663,-1.185134888,29.64407349,-18.44335938,-71.74708557,,,,,,,,0,36:11.9,0:08,60,0,36:19.1,1540931779,-0.104581004,0.452294235,-0.33459663,-0.180892944,-0.000564575,-1.09942627,29.99780273,-18.74568176,-71.50492859,,,,,,,,0,36:11.9,0:08,60,0,36:19.1,1540931779,-0.070528761,0.499301159,-0.270295138,-0.164382935,-0.011154175,-1.04460144,30.39718628,-18.97994995,-71.4919281,,,,,,,,0,36:11.9,0:08,60,0,36:19.1,1540931779,-0.070528761,0.499301159,-0.270295138,-0.125061035,-0.008651733,-1.021347046,30.67733765,-18.88006592,-71.55102539,,,,,,,,0,36:11.9,0:08,60,0,36:19.1,1540931779,0.198350107,0.242351388,0.047369114,-0.085678101,-0.000335693,-0.999282837,30.53570557,-19.08479309,-71.41023254,,,,,,,,0,36:11.9,0:08,60,0,36:19.2,1540931779,0.314433837,0.066506856,0.194903178,-0.07321167,-0.005310059,-0.967590332,30.53570557,-19.08479309,-71.41023254,,,,,,,,0,36:11.9,0:08,60,0,36:19.2,1540931779,0.356730961,-0.168128555,0.074667047,-0.132965088,-0.083282471,-0.886505127,30.32603455,-19.89642334,-70.82740784,,,,,,,,0,36:11.9,0:08,60,0,36:19.2,1540931779,0.356730961,-0.168128555,0.074667047,-0.150970459,-0.112564087,-0.835281372,30.18325806,-20.41049194,-70.22982788,,,,,,,,0,36:11.9,0:08,60,0,36:19.2,1540931779,0.183657181,-0.095772865,-0.022650451,-0.143188477,-0.112792969,-0.807815552,30.11378479,-20.70829773,-70.55693054,,,,,,,,0,36:11.9,0:08,60,0,36:19.2,1540931779,0.074854534,-0.002851713,-0.007517571,-0.137527466,-0.100708008,-0.803085327,30.11378479,-20.70829773,-70.55693054,,,,,,,,0,36:11.9,0:08,60,0,36:19.2,1540931779,0.074854534,-0.002851713,-0.007517571,-0.12059021,-0.123962402,-0.817428589,29.96365356,-20.52270508,-70.32400513,,,,,,,,0,36:11.9,0:08,60,0,36:19.3,1540931779,-0.179038994,0.015895077,-0.028850557,-0.138412476,-0.107788086,-0.832519531,30.01603699,-21.15437317,-70.26661682,,,,,,,,0,36:11.9,0:08,60,0,36:19.3,1540931779,-0.281197853,0.023455259,-0.051304733,-0.153091431,-0.113845825,-0.837905884,30.10560608,-21.32762146,-70.34625244,,,,,,,,0,36:11.9,0:08,60,0,36:19.3,1540931779,-0.314753683,0.132293859,-0.140043924,-0.196884155,-0.102325439,-0.852050781,29.90525818,-21.21058655,-70.43086243,,,,,,,,0,36:11.9,0:08,60,0,36:19.3,1540931779,-0.290522645,0.229586058,-0.184905938,-0.225021362,-0.091781616,-0.88269043,30.01654053,-20.84506226,-70.80149841,,,,,,,,0,36:11.9,0:08,60,0,36:19.3,1540931779,-0.235402668,0.266789086,-0.153818326,-0.159790039,-0.077026367,-0.924667358,30.01654053,-20.84506226,-70.80149841,,,,,,,,0,36:11.9,0:08,60,0,36:19.3,1540931779,-0.235402668,0.266789086,-0.153818326,-0.159790039,-0.077026367,-0.924667358,30.32196045,-21.21574402,-70.64256287,,,,,,,,0,36:11.9,0:08,60,0,36:19.4,1540931779,-0.166934394,0.201413009,0.072036377,-0.125289917,-0.078948975,-0.921218872,30.18215942,-21.11102295,-70.88044739,,,,,,,,0,36:11.9,0:08,60,0,36:19.4,1540931779,-0.175271153,0.126433573,0.17903207,-0.103164673,-0.096008301,-0.921615601,30.27107239,-21.28436279,-71.03816223,,,,,,,,0,36:11.9,0:08,60,0,36:19.4,1540931779,-0.122854551,0.007636614,0.278463053,-0.103164673,-0.096008301,-0.921615601,30.11524963,-21.40855408,-70.89517212,,,,,,,,0,36:11.9,0:08,60,0,36:19.4,1540931779,0.050706321,-0.128457309,0.355355438,-0.101455688,-0.110366821,-0.972259521,29.71078491,-21.48406982,-70.91998291,,,,,,,,0,36:11.9,0:08,60,0,36:19.4,1540931779,0.235364318,-0.215831097,0.393754226,-0.099304199,-0.13722229,-1.016540527,29.71078491,-21.48406982,-70.91998291,,,,,,,,0,36:11.9,0:08,60,0,36:19.4,1540931779,0.296977349,-0.150752761,0.470921716,-0.115997314,-0.160522461,-0.991104126,29.17108154,-21.45440674,-70.63600159,,,,,,,,0,36:11.9,0:08,60,0,36:19.5,1540931779,0.224313265,-0.01832601,0.527858235,-0.127365112,-0.216934204,-0.908279419,28.73069763,-21.98820496,-70.36756897,,,,,,,,0,36:11.9,0:08,60,0,36:19.5,1540931779,0.101526891,0.049783802,0.560097665,-0.127365112,-0.216934204,-0.908279419,28.38938904,-22.07579041,-70.23329163,,,,,,,,0,36:11.9,0:08,60,0,36:19.5,1540931779,0.012782108,0.027990356,0.542958359,-0.129440308,-0.233825684,-0.934265137,28.11053467,-22.17552185,-70.01800537,,,,,,,,0,36:11.9,0:08,60,0,36:19.5,1540931780,0.012782108,0.027990356,0.542958359,-0.1353302,-0.234802246,-0.993988037,28.11053467,-22.17552185,-70.01800537,,,,,,,,0,36:11.9,0:08,60,0,36:19.5,1540931780,0.035925777,0.015981896,0.515095569,-0.139221191,-0.223434448,-1.06022644,27.56575012,-22.45562744,-69.74581909,,,,,,,,0,36:11.9,0:08,60,0,36:19.5,1540931780,0.253177137,0.134942639,0.538748966,-0.129333496,-0.210342407,-1.090866089,27.13226318,-22.37020874,-69.84429932,,,,,,,,0,36:11.9,0:08,60,0,36:19.6,1540931780,0.245148239,0.181456079,0.557012925,-0.137207031,-0.172470093,-1.089447021,26.77233887,-22.6869812,-69.64147949,,,,,,,,0,36:11.9,0:08,60,0,36:19.6,1540931780,0.12701281,0.181439833,0.574175134,-0.137207031,-0.172470093,-1.089447021,26.5708313,-22.87930298,-69.26931763,,,,,,,,0,36:11.9,0:08,60,0,36:19.6,1540931780,0.009610549,0.145761997,0.581655421,-0.116088867,-0.151443481,-1.147232056,26.04464722,-22.9302063,-69.06565857,,,,,,,,0,36:11.9,0:08,60,0,36:19.6,1540931780,-0.183979957,-0.1602701,0.489230415,-0.150558472,-0.098678589,-1.222930908,25.63513184,-23.31547546,-69.1022644,,,,,,,,0,36:11.9,0:08,60,0,36:19.6,1540931780,-0.330124117,-0.484827944,0.317527365,-0.150558472,-0.098678589,-1.222930908,25.2202301,-23.00086975,-69.26925659,,,,,,,,0,36:11.9,0:08,60,0,36:19.6,1540931780,-0.238920704,-0.459243488,0.192246142,-0.196792603,0.071792603,-1.315078735,25.2202301,-23.00086975,-69.26925659,,,,,,,,0,36:11.9,0:08,60,0,36:19.7,1540931780,0.025847044,-0.118918931,0.193673064,-0.156143188,0.11088562,-1.268112183,24.66566467,-22.89077759,-69.06114197,,,,,,,,0,36:11.9,0:08,60,0,36:19.7,1540931780,0.181847563,0.128840005,0.34279091,-0.156143188,0.11088562,-1.268112183,24.52468872,-23.09542847,-68.84225464,,,,,,,,0,36:11.9,0:08,60,0,36:19.7,1540931780,0.092798647,0.210442723,0.436077981,-0.116531372,0.111602783,-1.163696289,24.52468872,-23.09542847,-68.84225464,,,,,,,,0,36:11.9,0:08,60,0,36:19.7,1540931780,-0.100257629,0.191899399,0.397550562,-0.125930786,0.057723999,-1.030136108,23.96946716,-22.9854126,-68.71221924,,,,,,,,0,36:11.9,0:08,60,0,36:19.7,1540931780,-0.100257629,0.191899399,0.397550562,-0.125930786,0.057723999,-1.030136108,23.96946716,-22.9854126,-68.71221924,,,,,,,,0,36:11.9,0:08,60,0,36:19.7,1540931780,-0.151900051,0.033216543,0.172486286,-0.134399414,0.057937622,-1.09286499,23.87287903,-23.12210083,-68.87870789,,,,,,,,0,36:11.9,0:08,60,0,36:19.8,1540931780,-0.011473431,-0.07809134,0.081291927,-0.118865967,0.065795898,-1.095748901,23.49351501,-22.96774292,-68.19107056,,,,,,,,0,36:11.9,0:08,60,0,36:19.8,1540931780,0.125951807,-0.045811963,0.064164872,-0.101654053,0.064117432,-1.056167603,23.62748718,-23.07305908,-68.65603638,,,,,,,,0,36:11.9,0:08,60,0,36:19.8,1540931780,0.20691004,0.158753962,0.105090467,-0.109817505,0.049789429,-0.97467041,23.50201416,-23.35804749,-68.28317261,,,,,,,,0,36:11.9,0:08,60,0,36:19.8,1540931780,0.09641522,0.393579256,0.071139158,-0.115142822,0.022506714,-0.911117554,23.54460144,-23.59953308,-68.28985596,,,,,,,,0,36:11.9,0:08,60,0,36:19.8,1540931780,0.09641522,0.393579256,0.071139158,-0.10697937,-0.015228271,-0.869491577,23.48602295,-23.58700562,-67.90229797,,,,,,,,0,36:11.9,0:08,60,0,36:19.8,1540931780,-0.00061519,0.256501561,-0.038234471,-0.10697937,-0.015228271,-0.869491577,23.48602295,-23.58700562,-67.90229797,,,,,,,,0,36:11.9,0:08,60,0,36:19.9,1540931780,-0.075586104,-0.013573067,-0.210958311,-0.086959839,-0.021347046,-0.900283813,23.62893677,-23.38215637,-67.8868866,,,,,,,,0,36:11.9,0:08,60,0,36:19.9,1540931780,-0.075586104,-0.013573067,-0.210958311,-0.073898315,0.00112915,-0.938278198,23.73139954,-23.63604736,-68.12495422,,,,,,,,0,36:11.9,0:08,60,0,36:19.9,1540931780,-0.064803764,0.011200457,-0.210930348,-0.073898315,0.00112915,-0.938278198,23.73139954,-23.63604736,-68.12495422,,,,,,,,0,36:11.9,0:08,60,0,36:19.9,1540931780,0.079120918,0.076681729,-0.161624583,-0.067474365,0.033157349,-0.97769165,23.77723694,-23.87721252,-67.74113464,,,,,,,,0,36:11.9,0:08,60,0,36:19.9,1540931780,0.079120918,0.076681729,-0.161624583,-0.067474365,0.033157349,-0.97769165,23.77723694,-23.87721252,-67.74113464,,,,,,,,0,36:11.9,0:08,60,0,36:20.0,1540931780,0.087151414,0.019540678,-0.227019569,-0.079925537,0.009292603,-1.000808716,23.85832214,-23.66015625,-67.72865295,,,,,,,,0,36:11.9,0:08,60,0,36:20.0,1540931780,-0.053872287,-0.066634687,-0.247438292,-0.065124512,0.008163452,-1.014328003,23.76368713,-23.79664612,-67.66079712,,,,,,,,0,36:11.9,0:08,60,0,36:20.0,1540931780,-0.053872287,-0.066634687,-0.247438292,-0.059036255,0.018005371,-1.029388428,23.76368713,-23.79664612,-67.66079712,,,,,,,,0,36:11.9,0:08,60,0,36:20.0,1540931780,-0.072949841,0.164631559,-0.151841727,-0.057189941,0.016387939,-1.026733398,24.00598145,-24.15525818,-67.66096497,,,,,,,,0,36:11.9,0:08,60,0,36:20.0,1540931780,-0.050414705,0.217208484,-0.100380933,-0.052459717,0.001663208,-1.007217407,24.08331299,-24.24780273,-67.50410461,,,,,,,,0,36:11.9,0:08,60,0,36:20.0,1540931780,-0.042642269,0.157482569,-0.059763732,-0.046295166,-0.016921997,-0.9793396,24.30227661,-24.13568115,-67.48802185,,,,,,,,0,36:11.9,0:08,60,0,36:20.0,1540931780,-0.042642269,0.157482569,-0.059763732,-0.05090332,-0.035568237,-0.956008911,24.30227661,-24.13568115,-67.48802185,,,,,,,,0,36:11.9,0:08,60,0,36:20.1,1540931780,-0.07505294,0.184859599,-0.066147329,-0.107345581,-0.061172485,-0.94380188,24.27388,-23.97470093,-67.48356628,,,,,,,,0,36:11.9,0:08,60,0,36:20.1,1540931780,0.359003436,0.75906962,-0.264723805,-0.148269653,-0.052597046,-0.889556885,24.54571533,-24.18492126,-67.94496155,,,,,,,,0,36:11.9,0:08,60,0,36:20.1,1540931780,0.359003436,0.75906962,-0.264723805,-0.148269653,-0.052597046,-0.889556885,24.54571533,-24.18492126,-67.94496155,,,,,,,,0,36:11.9,0:08,60,0,36:20.1,1540931780,0.116801984,0.433107758,-0.395712715,-0.027587891,-0.111404419,-0.991104126,24.94706726,-24.41894531,-67.69767761,,,,,,,,0,36:11.9,0:08,60,0,36:20.1,1540931780,-0.566925477,-0.412115124,-0.527235855,-0.045074463,-0.05317688,-1.099273682,25.24205017,-24.39953613,-67.68089294,,,,,,,,0,36:11.9,0:08,60,0,36:20.2,1540931780,-0.325008185,-0.346621335,-0.445827814,-0.045074463,-0.021499634,-1.149581909,25.23095703,-24.00947571,-67.90115356,,,,,,,,0,36:11.9,0:08,60,0,36:20.2,1540931780,-0.325008185,-0.346621335,-0.445827814,-0.045074463,-0.021499634,-1.149581909,25.23095703,-24.00947571,-67.90115356,,,,,,,,