SessionID,SessionDate,SessionDuration,SessionFrequency,RecordID,Timestamp,timeIntervalSince1970,GyroX,GyroY,GyroZ,AccX,AccY,AccZ,MagX,MagY,MagZ,WatchTimestamp,WatchtImeIntervalSince1970,WatchGyroX,WatchGyroY,WatchGyroZ,WatchAccX,WatchAccY,WatchAccZ
0,2018-10-30 16:36:11.9010,00:08,60,0,2018-10-30 16:36:11.9600,1540931771.960243,0.028601284843014985,-0.44023251241500344,-0.06480163354046208,0.0200958251953125,-0.1433868408203125,-1.06103515625,34.12013244628906,24.322921752929688,-74.36068725585938,,,,,,,,,,
0,2018-10-30 16:36:11.9010,00:08,60,0,2018-10-30 16:36:11.9760,1540931771.975689,0.01947170231011435,-0.40761091959040485,-0.08617643076554704,-0.013671875,-0.1522216796875,-1.0366973876953125,33.886993408203125,24.291275024414062,-74.37454223632812,,,,,,,,,,
0,2018-10-30 16:36:11.9010,00:08,60,0,2018-10-30 16:36:11.9930,1540931771.992567,-0.07043262134932561,-0.3384009554975346,-0.13747077757323622,-0.0456695556640625,-0.16339111328125,-0.98583984375,33.53080749511719,24.284103393554688,-74.31611633300781,,,,,,,,,,
0,2018-10-30 16:36:11.9010,00:08,60,0,2018-10-30 16:36:12.0090,1540931772.009101,-0.15687829770107967,-0.23893055720253,-0.19087035322263304,-0.06658935546875,-0.16253662109375,-0.9649505615234375,33.345947265625,24.32080078125,-74.24674987792969,,,,,,,,,,
0,2018-10-30 16:36:11.9010,00:08,60,0,2018-10-30 16:36:12.0270,1540931772.026583,-0.23636992781441882,-0.07143263833865036,-0.23240820937681694,-0.0692291259765625,-0.14044189453125,-0.9503021240234375,33.345947265625,24.32080078125,-74.24674987792969,,,,,,,,,,
0,2018-10-30 16:36:11.9010,00:08,60,0,2018-10-30 16:36:12.0430,1540931772.042809,-0.29806471762719444,0.09247826885300155,-0.23112030467365463,-0.0692291259765625,-0.14044189453125,-0.9503021240234375,33.380706787109375,24.469711303710938,-74.08320617675781,,,,,,,,,,
0,2018-10-30 16:36:11.9010,00:08,60,0,2018-10-30 16:36:12.0600,1540931772.0596318,-0.294419116410985,0.15496241961287666,-0.17750101823432626,-0.042938232421875,-0.132843017578125,-0.9633331298828125,33.350372314453125,24.630477905273438,-74.31303405761719,,,,,,,,,,
0,2018-10-30 16:36:11.9010,00:08,60,0,2018-10-30 16:36:12.0760,1540931772.076282,-0.230594596674473,0.125833828874026,-0.0790330337736275,-0.00146484375,-0.13568115234375,-0.9992523193359375,33.01849365234375,25.162353515625,-74.23323059082031,,,,,,,,,,
0,2018-10-30 16:36:11.9010,00:08,60,0,2018-10-30 16:36:12.0930,1540931772.092947,-0.17883845773376406,0.0438907589772689,0.0022389195284296154,-0.00146484375,-0.13568115234375,-0.9992523193359375,33.26519775390625,25.113449096679688,-74.2996826171875,,,,,,,,,,
0,2018-10-30 16:36:11.9010,00:08,60,0,2018-10-30 16:36:12.1100,1540931772.10971,-0.1616815750431466,-0.02780579862540832,0.038555648365513166,-0.0028533935546875,-0.1630859375,-0.9949493408203125,33.08293151855469,25.150390625,-73.91792297363281,,,,,,,,,,
0,2018-10-30 16:36:11.9010,00:08,60,0,2018-10-30 16:36:12.1260,1540931772.1264691,-0.17353823453228837,-0.06642429759264736,-0.012890498624310538,-0.058563232421875,-0.2190704345703125,-1.0149078369140625,33.42359924316406,25.237930297851562,-74.13032531738281,,,,,,,,,,
0,2018-10-30 16:36:11.9010,00:08,60,0,2018-10-30 16:36:12.1510,1540931772.150677,-0.13218067438390282,-0.058954397051084094,-0.08678070201688602,-0.0489349365234375,-0.2130126953125,-1.0142669677734375,33.218841552734375,25.0452880859375,-74.14863586425781,,,,,,,,,,
0,2018-10-30 16:36:11.9010,00:08,60,0,2018-10-30 16:36:12.1780,1540931772.177726,-0.1872156972587173,0.024939172028047026,-0.10701033997323693,0.0020751953125,-0.19354248046875,-0.9683685302734375,33.15765380859375,25.05755615234375,-74.07344055175781,,,,,,,,,,
0,2018-10-30 16:36:11.9010,00:08,60,0,2018-10-30 16:36:12.1940,1540931772.194344,-0.23859020521521787,0.06209133449908843,-0.07803887573870093,0.0020751953125,-0.19354248046875,-0.9683685302734375,33.17430114746094,25.286575317382812,-74.37626647949219,,,,,,,,,,
0,2018-10-30 16:36:11.9010,00:08,60,0,2018-10-30 16:36:12.2110,1540931772.211031,-0.1899377142088873,0.07996886858068135,-0.067319918667241,0.001129150390625,-0.1728515625,-1.02490234375,33.03840637207031,25.391677856445312,-74.14555358886719,,,,,,,,,,
0,2018-10-30 16:36:11.9010,00:08,60,0,2018-10-30 16:36:12.2260,1540931772.226388,-0.10129839206723498,0.09200742197227554,-0.044838311693119096,-0.00115966796875,-0.1654205322265625,-1.0301666259765625,33.02485656738281,25.47222900390625,-74.06523132324219,,,,,,,,,,
0,2018-10-30 16:36:11.9010,00:08,60,0,2018-10-30 16:36:12.2430,1540931772.243185,-0.02714853046837676,0.02412024999284766,-0.016026637123987848,-0.00115966796875,-0.1654205322265625,-1.0301666259765625,33.02485656738281,25.47222900390625,-74.06523132324219,,,,,,,,,,
0,2018-10-30 16:36:11.9010,00:08,60,0,2018-10-30 16:36:12.2600,1540931772.259814,-0.010878214104646663,-0.03770050733948872,-0.012894227049836648,-0.018707275390625,-0.171600341796875,-0.9790191650390625,33.17494201660156,25.286636352539062,-74.29815673828125,,,,,,,,,,
0,2018-10-30 16:36:11.9010,00:08,60,0,2018-10-30 16:36:12.2770,1540931772.276723,-0.07620928406981649,-0.03700488966276002,-0.030011428640211942,-0.03228759765625,-0.1775360107421875,-0.9602203369140625,32.95732116699219,25.174636840820312,-74.15803527832031,,,,,,,,,,
0,2018-10-30 16:36:11.9010,00:08,60,0,2018-10-30 16:36:12.2930,1540931772.29326,-0.1527354843093524,0.005976666118355826,-0.04600291203781075,-0.034088134765625,-0.1812896728515625,-0.9712066650390625,32.9295654296875,25.335678100585938,-74.07550048828125,,,,,,,,,,
0,2018-10-30 16:36:11.9010,00:08,60,0,2018-10-30 16:36:12.3100,1540931772.309818,-0.18614217702330638,0.044097952910077065,-0.0320266426370749,-0.025054931640625,-0.180755615234375,-1.0023956298828125,33.05323791503906,25.311248779296875,-74.06968688964844,,,,,,,,,,
0,2018-10-30 16:36:11.9010,00:08,60,0,2018-10-30 16:36:12.3270,1540931772.32652,-0.15217542153210875,0.07607026706091435,0.005484780265018191,-0.0183258056640625,-0.184906005859375,-1.0223846435546875,32.8961181640625,25.186904907226562,-74.08285522460938,,,,,,,,,,
0,2018-10-30 16:36:11.9010,00:08,60,0,2018-10-30 16:36:12.3430,1540931772.343196,-0.11191854586225296,0.10472880986736605,0.04513232467746384,-0.01910400390625,-0.1943817138671875,-1.0201568603515625,32.8961181640625,25.186904907226562,-74.08285522460938,,,,,,,,,,
0,2018-10-30 16:36:11.9010,00:08,60,0,2018-10-30 16:36:12.3600,1540931772.3599539,-0.08653036487441858,0.12058074362384469,0.0772716190286491,-0.01385498046875,-0.206298828125,-1.0169677734375,33.06303405761719,24.921066284179688,-74.00563049316406,,,,,,,,,,
0,2018-10-30 16:36:11.9010,00:08,60,0,2018-10-30 16:36:12.3790,1540931772.378646,0.03447541925940276,0.006542055217779648,0.17455023574651846,0.0091400146484375,-0.205810546875,-1.029083251953125,33.15260314941406,24.747802734375,-74.08525085449219,,,,,,,,,,
0,2018-10-30 16:36:11.9010,00:08,60,0,2018-10-30 16:36:12.3940,1540931772.393873,0.03447541925940276,0.006542055217779648,0.17455023574651846,0.0126495361328125,-0.21185302734375,-1.012908935546875,33.014739990234375,24.85272216796875,-74.08883666992188,,,,,,,,,,
0,2018-10-30 16:36:11.9010,00:08,60,0,2018-10-30 16:36:12.4100,1540931772.4101791,0.019478892845057563,-0.007554855380336783,0.21951265074643525,0.004852294921875,-0.212310791015625,-1.0055084228515625,32.970855712890625,25.09405517578125,-74.23835754394531,,,,,,,,,,
0,2018-10-30 16:36:11.9010,00:08,60,0,2018-10-30 16:36:12.4270,1540931772.426614,-0.007888549464923712,0.002356631248611118,0.24094870067659205,-0.0062408447265625,-0.1926727294921875,-1.0262451171875,33.11851501464844,24.598983764648438,-74.17071533203125,,,,,,,,,,
0,2018-10-30 16:36:11.9010,00:08,60,0,2018-10-30 16:36:12.4430,1540931772.443379,-0.01725541965095041,0.018610702329691732,0.2559630702702408,-0.005462646484375,-0.1795806884765625,-1.0640411376953125,33.407806396484375,24.30859375,-74.24383544921875,,,,,,,,,,
0,2018-10-30 16:36:11.9010,00:08,60,0,2018-10-30 16:36:12.4600,1540931772.460084,0.041024398696016616,0.05790378000104784,0.2977611172629254,0.006988525390625,-0.1555328369140625,-1.117156982421875,33.407806396484375,24.30859375,-74.24383544921875,,,,,,,,,,
0,2018-10-30 16:36:11.9010,00:08,60,0,2018-10-30 16:36:12.4760,1540931772.476491,0.16937917585791162,0.15054902905439735,0.35352930838583874,0.02325439453125,-0.1505889892578125,-1.121002197265625,33.50962829589844,24.054641723632812,-74.55999755859375,,,,,,,,,,
0,2018-10-30 16:36:11.9010,00:08,60,0,2018-10-30 16:36:12.4930,1540931772.4933848,0.22366371993754178,0.21791661830515077,0.41678018322354765,0.036285400390625,-0.16357421875,-1.08062744140625,33.86138916015625,23.752105712890625,-74.5521240234375,,,,,,,,,,
0,2018-10-30 16:36:11.9010,00:08,60,0,2018-10-30 16:36:12.5100,1540931772.509891,0.04084729848352635,0.19341713417307582,0.4906834361054645,0.0389251708984375,-0.1748199462890625,-1.0547027587890625,33.90837097167969,23.820327758789062,-74.62507629394531,,,,,,,,,,
0,2018-10-30 16:36:11.9010,00:08,60,0,2018-10-30 16:36:12.5270,1540931772.526644,0.04084729848352635,0.19341713417307582,0.4906834361054645,0.0215606689453125,-0.175018310546875,-1.07318115234375,34.06108093261719,23.634994506835938,-74.54562377929688,,,,,,,,,,
0,2018-10-30 16:36:11.9010,00:08,60,0,2018-10-30 16:36:12.5440,1540931772.543608,-0.09864348677653498,0.15166729039612162,0.4467601865628967,-0.014068603515625,-0.16241455078125,-1.126708984375,34.44630432128906,23.481231689453125,-74.5303955078125,,,,,,,,,,
0,2018-10-30 16:36:11.9010,00:08,60,0,2018-10-30 16:36:12.5600,1540931772.560046,-0.24633947135513046,0.20371291494732216,0.2284041466778828,-0.0408477783203125,-0.1100921630859375,-1.2059783935546875,34.44630432128906,23.481231689453125,-74.5303955078125,,,,,,,,,,
0,2018-10-30 16:36:11.9010,00:08,60,0,2018-10-30 16:36:12.5770,1540931772.5766392,-0.24633947135513046,0.20371291494732216,0.2284041466778828,-0.027923583984375,-0.040771484375,-1.2844085693359375,34.35035705566406,23.344619750976562,-74.61875915527344,,,,,,,,,,
0,2018-10-30 16:36:11.9010,00:08,60,0,2018-10-30 16:36:12.5940,1540931772.594176,-0.1368713000118594,0.17469457907760078,0.18979097403282394,0.024078369140625,0.0222015380859375,-1.3355560302734375,34.75172424316406,23.110549926757812,-74.37147521972656,,,,,,,,,,
0,2018-10-30 16:36:11.9010,00:08,60,0,2018-10-30 16:36:12.6110,1540931772.611376,0.2753543451154347,0.09971354490252882,0.36950401386857,0.0726470947265625,0.0626220703125,-1.315032958984375,34.60749816894531,22.905593872070312,-74.54306030273438,,,,,,,,,,
0,2018-10-30 16:36:11.9010,00:08,60,0,2018-10-30 16:36:12.6260,1540931772.626449,0.2753543451154347,0.09971354490252882,0.36950401386857,0.0934600830078125,0.07440185546875,-1.217620849609375,34.744720458984375,22.800582885742188,-74.6175537109375,,,,,,,,,,
0,2018-10-30 16:36:11.9010,00:08,60,0,2018-10-30 16:36:12.6440,1540931772.643507,0.35890995905223483,0.28091955284537334,0.5656751229248967,0.0812225341796875,0.053619384765625,-1.1097564697265625,35.12486267089844,22.337066650390625,-74.6141357421875,,,,,,,,,,
0,2018-10-30 16:36:11.9010,00:08,60,0,2018-10-30 16:36:12.6600,1540931772.659995,0.41324217371537736,0.23805677404887501,0.6052310545958437,0.0570831298828125,0.0258026123046875,-1.04693603515625,35.12486267089844,22.337066650390625,-74.6141357421875,,,,,,,,,,
0,2018-10-30 16:36:11.9010,00:08,60,0,2018-10-30 16:36:12.6770,1540931772.677205,0.41324217371537736,0.23805677404887501,0.6052310545958437,0.0355987548828125,0.0045166015625,-1.0249786376953125,35.60179138183594,21.30987548828125,-74.93869018554688,,,,,,,,,,
0,2018-10-30 16:36:11.9010,00:08,60,0,2018-10-30 16:36:12.6930,1540931772.693221,0.5104376998072363,-0.10941730496645054,0.4409371848394384,0.0185546875,-0.0034332275390625,-0.9988555908203125,35.61466979980469,21.229248046875,-75.09709167480469,,,,,,,,,,
0,2018-10-30 16:36:11.9010,00:08,60,0,2018-10-30 16:36:12.7100,1540931772.709766,0.3926090668538795,-0.09932072864174213,0.3628050984625847,0.010955810546875,-0.021270751953125,-0.9449920654296875,35.63932800292969,20.758651733398438,-74.9571533203125,,,,,,,,,,
0,2018-10-30 16:36:11.9010,00:08,60,0,2018-10-30 16:36:12.7260,1540931772.726336,0.3926090668538795,-0.09932072864174213,0.3628050984625847,0.007904052734375,-0.03204345703125,-0.91424560546875,35.75532531738281,20.424209594726562,-75.27554321289062,,,,,,,,,,
0,2018-10-30 16:36:11.9010,00:08,60,0,2018-10-30 16:36:12.7430,1540931772.743174,0.22992161586700996,0.05214123203433438,0.203472697816997,0.01470947265625,-0.0399322509765625,-0.92266845703125,35.67425537109375,20.207138061523438,-75.28804016113281,,,,,,,,,,
0,2018-10-30 16:36:11.9010,00:08,60,0,2018-10-30 16:36:12.7600,1540931772.759861,0.21668490630098913,0.08818844896910191,0.14676467714539476,0.0198822021484375,-0.042999267578125,-0.9287872314453125,35.86189270019531,19.470306396484375,-75.53941345214844,,,,,,,,,,
0,2018-10-30 16:36:11.9010,00:08,60,0,2018-10-30 16:36:12.7770,1540931772.776569,0.24089730166755352,0.07619543563214808,0.11247647811062456,0.03948974609375,-0.0451507568359375,-0.9311981201171875,35.86189270019531,19.470306396484375,-75.53941345214844,,,,,,,,,,
0,2018-10-30 16:36:11.9010,00:08,60,0,2018-10-30 16:36:12.7930,1540931772.79318,0.23880538863129627,0.07624550306064157,0.10498101122259655,0.062591552734375,-0.0536346435546875,-0.911346435546875,35.67637634277344,19.506942749023438,-75.54814147949219,,,,,,,,,,
0,2018-10-30 16:36:11.9010,00:08,60,0,2018-10-30 16:36:12.8100,1540931772.809881,0.20817903609538504,0.07326036579477174,0.11355159624268955,0.0995941162109375,-0.0912322998046875,-0.8501739501953125,35.823394775390625,19.011764526367188,-75.55859375,,,,,,,,,,
0,2018-10-30 16:36:11.9010,00:08,60,0,2018-10-30 16:36:12.8280,1540931772.827596,0.18779413584748253,0.03774578107802007,0.11779614238805784,0.0995941162109375,-0.0912322998046875,-0.8501739501953125,35.74604797363281,19.104354858398438,-75.71546936035156,,,,,,,,,,
0,2018-10-30 16:36:11.9010,00:08,60,0,2018-10-30 16:36:12.8440,1540931772.844228,0.17334941641100174,-0.0335960434674586,0.14127057581656127,0.1092529296875,-0.1009979248046875,-0.8468780517578125,35.91168212890625,18.838409423828125,-75.79441833496094,,,,,,,,,,
0,2018-10-30 16:36:11.9010,00:08,60,0,2018-10-30 16:36:12.8600,1540931772.859962,0.14401203384268885,-0.12097622304572146,0.15402019321920662,0.0993194580078125,-0.119110107421875,-0.86651611328125,35.858978271484375,18.460372924804688,-75.81135559082031,,,,,,,,,,
0,2018-10-30 16:36:11.9010,00:08,60,0,2018-10-30 16:36:12.8770,1540931772.876832,0.13857811995449118,-0.13928572185612523,0.14757374548456081,0.0993194580078125,-0.119110107421875,-0.86651611328125,35.858978271484375,18.460372924804688,-75.81135559082031,,,,,,,,,,
0,2018-10-30 16:36:11.9010,00:08,60,0,2018-10-30 16:36:12.8940,1540931772.893649,0.1159697465124815,-0.08061468514502557,0.13587208197086167,0.08453369140625,-0.1244049072265625,-0.879302978515625,35.60722351074219,18.199508666992188,-75.75672912597656,,,,,,,,,,
0,2018-10-30 16:36:11.9010,00:08,60,0,2018-10-30 16:36:12.9110,1540931772.910665,0.03127403331301851,-0.012630574101918804,0.10813392763714136,0.073577880859375,-0.1468048095703125,-0.83807373046875,35.68455505371094,18.10693359375,-75.59982299804688,,,,,,,,,,
0,2018-10-30 16:36:11.9010,00:08,60,0,2018-10-30 16:36:12.9270,1540931772.9266338,-0.0814059103048881,-0.010244648081316813,0.052479187176665436,0.073577880859375,-0.1468048095703125,-0.83807373046875,35.54475402832031,18.211654663085938,-75.83772277832031,,,,,,,,,,
0,2018-10-30 16:36:11.9010,00:08,60,0,2018-10-30 16:36:12.9440,1540931772.943573,-0.12184015250334317,-0.05835332159305321,0.008524246017125625,0.0787353515625,-0.1524505615234375,-0.911773681640625,35.54669189453125,18.211837768554688,-75.60342407226562,,,,,,,,,,
0,2018-10-30 16:36:11.9010,00:08,60,0,2018-10-30 16:36:12.9600,1540931772.9601989,-0.11288873544736883,-0.11786778142138098,-0.0065433867983246885,0.08746337890625,-0.1595611572265625,-0.9371795654296875,35.40184020996094,18.006805419921875,-75.85311889648438,,,,,,,,,,
0,2018-10-30 16:36:11.9010,00:08,60,0,2018-10-30 16:36:12.9770,1540931772.976686,-0.11519157084196034,-0.14051663491195984,-0.01727938810076112,0.08746337890625,-0.1595611572265625,-0.9371795654296875,35.40184020996094,18.006805419921875,-75.85311889648438,,,,,,,,,,
0,2018-10-30 16:36:11.9010,00:08,60,0,2018-10-30 16:36:12.9940,1540931772.9936352,-0.11612767196512319,-0.1360441221772808,-0.05154122184073953,0.074615478515625,-0.1589202880859375,-0.975189208984375,35.44767761230469,17.765670776367188,-75.46929931640625,,,,,,,,,,
0,2018-10-30 16:36:11.9010,00:08,60,0,2018-10-30 16:36:13.0100,1540931773.010427,-0.125194936528516,-0.10012260644596499,-0.08683316629036059,0.0829010009765625,-0.1584930419921875,-0.9928131103515625,35.183013916015625,17.585418701171875,-75.25624084472656,,,,,,,,,,
0,2018-10-30 16:36:11.9010,00:08,60,0,2018-10-30 16:36:13.0280,1540931773.028372,-0.15934358592216602,-0.0348597134047012,-0.0963821966949487,0.0829010009765625,-0.1584930419921875,-0.9928131103515625,35.001251220703125,17.93170166015625,-75.40937805175781,,,,,,,,,,
0,2018-10-30 16:36:11.9010,00:08,60,0,2018-10-30 16:36:13.0440,1540931773.043925,-0.20605436617771983,-0.06474783768644247,-0.08355747814956312,0.11376953125,-0.1767730712890625,-1.028778076171875,34.95362854003906,17.863418579101562,-75.41448974609375,,,,,,,,,,
0,2018-10-30 16:36:11.9010,00:08,60,0,2018-10-30 16:36:13.0610,1540931773.061028,-0.2053446337472137,-0.2065140277818675,-0.06659873464404754,0.12249755859375,-0.1793060302734375,-1.07940673828125,34.56402587890625,17.707473754882812,-75.36344909667969,,,,,,,,,,
0,2018-10-30 16:36:11.9010,00:08,60,0,2018-10-30 16:36:13.0770,1540931773.076843,-0.18979576772278609,-0.34296747781869347,-0.06141648947886235,0.0948028564453125,-0.1810302734375,-1.137725830078125,34.379150390625,17.744155883789062,-75.2940673828125,,,,,,,,,,
0,2018-10-30 16:36:11.9010,00:08,60,0,2018-10-30 16:36:13.0940,1540931773.093552,-0.15126754991650074,-0.39947815825352084,-0.08719615514693839,0.037841796875,-0.171295166015625,-1.2030487060546875,34.379150390625,17.744155883789062,-75.2940673828125,,,,,,,,,,
0,2018-10-30 16:36:11.9010,00:08,60,0,2018-10-30 16:36:13.1100,1540931773.110368,-0.0690507070596835,-0.3101895574381072,-0.16313699257887487,0.037841796875,-0.171295166015625,-1.2030487060546875,34.251068115234375,17.458877563476562,-75.23359680175781,,,,,,,,,,
0,2018-10-30 16:36:11.9010,00:08,60,0,2018-10-30 16:36:13.1270,1540931773.126748,0.03312706079949564,-0.1140946147889567,-0.21860451281471824,-0.00927734375,-0.14654541015625,-1.2248382568359375,33.853607177734375,17.693344116210938,-75.01231384277344,,,,,,,,,,
0,2018-10-30 16:36:11.9010,00:08,60,0,2018-10-30 16:36:13.1440,1540931773.143598,0.021638450173002817,0.11428236764580729,-0.23009951502782724,0.00604248046875,-0.1490325927734375,-1.1438446044921875,33.854248046875,17.693405151367188,-74.9342041015625,,,,,,,,,,
0,2018-10-30 16:36:11.9010,00:08,60,0,2018-10-30 16:36:13.1600,1540931773.160307,-0.1508323893943818,0.15287103920883743,-0.2696322771972905,0.00604248046875,-0.1490325927734375,-1.1438446044921875,33.765350341796875,17.866729736328125,-74.77647399902344,,,,,,,,,,
0,2018-10-30 16:36:11.9010,00:08,60,0,2018-10-30 16:36:13.1770,1540931773.177083,-0.3222456876928959,0.17976177568369453,-0.3616519497105804,-0.008697509765625,-0.139556884765625,-1.1458892822265625,33.71705627441406,17.798370361328125,-74.85971069335938,,,,,,,,,,
0,2018-10-30 16:36:11.9010,00:08,60,0,2018-10-30 16:36:13.1940,1540931773.19366,-0.41198169957144287,0.14001889010422405,-0.48589933352324616,-0.03094482421875,-0.095245361328125,-1.2125091552734375,33.71705627441406,17.798370361328125,-74.85971069335938,,,,,,,,,,
0,2018-10-30 16:36:11.9010,00:08,60,0,2018-10-30 16:36:13.2100,1540931773.2101889,-0.3813417649139722,0.13877599282348407,-0.5191049575748992,-0.0231170654296875,-0.0499725341796875,-1.2619781494140625,33.731903076171875,17.71795654296875,-74.78382873535156,,,,,,,,,,
0,2018-10-30 16:36:11.9010,00:08,60,0,2018-10-30 16:36:13.2270,1540931773.227283,-0.21245873596714238,0.1736341083315312,-0.4452131562856696,-0.01171875,-0.01727294921875,-1.276519775390625,33.58308410644531,17.9036865234375,-74.39471435546875,,,,,,,,,,
0,2018-10-30 16:36:11.9010,00:08,60,0,2018-10-30 16:36:13.2450,1540931773.244972,0.03241067046626433,0.22277688729454537,-0.33919617539903224,-0.0064544677734375,-0.0162200927734375,-1.2282867431640625,33.61210632324219,17.742767333984375,-74.32106018066406,,,,,,,,,,
0,2018-10-30 16:36:11.9010,00:08,60,0,2018-10-30 16:36:13.2610,1540931773.261339,0.209353756452219,0.2271226335613367,-0.22786379129270573,0.0033721923828125,-0.0311431884765625,-1.1258087158203125,33.74803161621094,17.637649536132812,-74.5517578125,,,,,,,,,,
0,2018-10-30 16:36:11.9010,00:08,60,0,2018-10-30 16:36:13.2780,1540931773.2780728,0.27802656095322026,0.15041666994822042,-0.14444772699702582,-0.006744384765625,-0.04180908203125,-1.030975341796875,33.64768981933594,17.191329956054688,-74.57383728027344,,,,,,,,,,
0,2018-10-30 16:36:11.9010,00:08,60,0,2018-10-30 16:36:13.2950,1540931773.295086,0.2182875966449988,-0.14423360884538344,-0.1587180093821064,-0.0306243896484375,-0.0420989990234375,-0.9692840576171875,33.76890563964844,16.857421875,-74.26744079589844,,,,,,,,,,
0,2018-10-30 16:36:11.9010,00:08,60,0,2018-10-30 16:36:13.3120,1540931773.311674,0.2182875966449988,-0.14423360884538344,-0.1587180093821064,-0.0518798828125,-0.0377655029296875,-0.96820068359375,33.76890563964844,16.857421875,-74.26744079589844,,,,,,,,,,
0,2018-10-30 16:36:11.9010,00:08,60,0,2018-10-30 16:36:13.3280,1540931773.328147,0.25171346411880136,-0.18232080717515167,-0.18126113537740915,-0.0639190673828125,-0.02301025390625,-0.9970855712890625,33.48683166503906,16.757354736328125,-74.44264221191406,,,,,,,,,,
0,2018-10-30 16:36:11.9010,00:08,60,0,2018-10-30 16:36:13.3440,1540931773.3438,0.3751336700968885,-0.06138639575854446,-0.15544098966076392,-0.0621795654296875,-0.0238494873046875,-0.9929962158203125,33.204742431640625,16.65728759765625,-74.61781311035156,,,,,,,,,,
0,2018-10-30 16:36:11.9010,00:08,60,0,2018-10-30 16:36:13.3600,1540931773.3603392,0.3751336700968885,-0.06138639575854446,-0.15544098966076392,-0.069793701171875,-0.0408935546875,-0.9536285400390625,33.063140869140625,16.45257568359375,-74.47703552246094,,,,,,,,,,
0,2018-10-30 16:36:11.9010,00:08,60,0,2018-10-30 16:36:13.3770,1540931773.377007,0.3634506487108199,0.030816768553851903,-0.19387546419667845,-0.0772705078125,-0.0623321533203125,-0.905670166015625,33.11485290527344,15.82086181640625,-74.49772644042969,,,,,,,,,,
0,2018-10-30 16:36:11.9010,00:08,60,0,2018-10-30 16:36:13.3950,1540931773.395399,0.2768675532468178,0.10665587323214738,-0.2879969034422589,-0.0695648193359375,-0.0803680419921875,-0.8614349365234375,33.24635314941406,15.406051635742188,-74.66213989257812,,,,,,,,,,
0,2018-10-30 16:36:11.9010,00:08,60,0,2018-10-30 16:36:13.4110,1540931773.411186,0.2768675532468178,0.10665587323214738,-0.2879969034422589,-0.04437255859375,-0.0885467529296875,-0.84814453125,33.24635314941406,15.406051635742188,-74.66213989257812,,,,,,,,,,
0,2018-10-30 16:36:11.9010,00:08,60,0,2018-10-30 16:36:13.4270,1540931773.4271169,0.30028259818301245,0.017769143425226692,-0.29560821783770536,-0.0301055908203125,-0.0834503173828125,-0.8410186767578125,33.299896240234375,15.083770751953125,-75.0615234375,,,,,,,,,,
0,2018-10-30 16:36:11.9010,00:08,60,0,2018-10-30 16:36:13.4440,1540931773.443563,0.28627090873977856,-0.009217999481091267,-0.2752917608298179,-0.0254364013671875,-0.0796661376953125,-0.825592041015625,33.49713134765625,14.657150268554688,-74.75445556640625,,,,,,,,,,
0,2018-10-30 16:36:11.9010,00:08,60,0,2018-10-30 16:36:13.4600,1540931773.460353,0.28627090873977856,-0.009217999481091267,-0.2752917608298179,-0.0283660888671875,-0.0840301513671875,-0.8103485107421875,33.433349609375,14.669158935546875,-74.99163818359375,,,,,,,,,,
0,2018-10-30 16:36:11.9010,00:08,60,0,2018-10-30 16:36:13.4780,1540931773.4776158,0.11161627707852897,0.04095089544993043,-0.2302116341097196,-0.026763916015625,-0.09405517578125,-0.788055419921875,33.255035400390625,14.315353393554688,-75.24870300292969,,,,,,,,,,
0,2018-10-30 16:36:11.9010,00:08,60,0,2018-10-30 16:36:13.4940,1540931773.494154,0.0154838848938297,0.031972047834728276,-0.1884359576701916,-0.0172576904296875,-0.1102294921875,-0.7810821533203125,33.19889831542969,14.63739013671875,-75.16171264648438,,,,,,,,,,
0,2018-10-30 16:36:11.9010,00:08,60,0,2018-10-30 16:36:13.5110,1540931773.510634,0.0154838848938297,0.031972047834728276,-0.1884359576701916,-0.022247314453125,-0.121795654296875,-0.805419921875,33.19889831542969,14.63739013671875,-75.16171264648438,,,,,,,,,,
0,2018-10-30 16:36:11.9010,00:08,60,0,2018-10-30 16:36:13.5270,1540931773.5270638,-0.07688492803836959,-0.03632152252704569,-0.1992065800667991,-0.03173828125,-0.129791259765625,-0.8291778564453125,33.227294921875,14.476394653320312,-75.16616821289062,,,,,,,,,,
0,2018-10-30 16:36:11.9010,00:08,60,0,2018-10-30 16:36:13.5450,1540931773.544979,-0.14609222897014976,0.0011646003446916509,-0.2109231572826027,-0.037261962890625,-0.13580322265625,-0.8438720703125,33.25764465332031,14.31561279296875,-74.93630981445312,,,,,,,,,,
0,2018-10-30 16:36:11.9010,00:08,60,0,2018-10-30 16:36:13.5620,1540931773.561501,-0.2647019670712268,0.05959408834492113,-0.2022556331988308,-0.0333099365234375,-0.1447601318359375,-0.8492279052734375,33.04179382324219,14.513015747070312,-75.17489624023438,,,,,,,,,,
0,2018-10-30 16:36:11.9010,00:08,60,0,2018-10-30 16:36:13.5780,1540931773.578086,-0.3668304664502395,0.08209087533725648,-0.17329002791869297,-0.01763916015625,-0.158935546875,-0.8617401123046875,33.29107666015625,14.464385986328125,-74.928955078125,,,,,,,,,,
0,2018-10-30 16:36:11.9010,00:08,60,0,2018-10-30 16:36:13.5950,1540931773.595028,-0.35544758331902276,0.07309311927831477,-0.11440647095260499,0.0144500732421875,-0.1609344482421875,-0.9989776611328125,33.34184265136719,14.84222412109375,-75.14631652832031,,,,,,,,,,
0,2018-10-30 16:36:11.9010,00:08,60,0,2018-10-30 16:36:13.6120,1540931773.611871,-0.24175004584859688,0.07594696270244368,-0.019123627155640994,0.0144500732421875,-0.1609344482421875,-0.9989776611328125,33.3450927734375,14.842544555664062,-74.75582885742188,,,,,,,,,,
0,2018-10-30 16:36:11.9010,00:08,60,0,2018-10-30 16:36:13.6280,1540931773.6283932,-0.1292490666559436,0.06792765202799708,0.0932798803411154,0.03045654296875,-0.17144775390625,-1.0440673828125,33.3450927734375,14.842544555664062,-74.75582885742188,,,,,,,,,,
0,2018-10-30 16:36:11.9010,00:08,60,0,2018-10-30 16:36:13.6460,1540931773.645742,-0.08679028939681031,0.0023622238869002842,0.15851134808151626,0.034881591796875,-0.2238616943359375,-1.0391387939453125,33.49713134765625,14.657150268554688,-74.75445556640625,,,,,,,,,,
0,2018-10-30 16:36:11.9010,00:08,60,0,2018-10-30 16:36:13.6630,1540931773.662984,-0.0891525132837106,-0.12326600895097159,0.20440400525019772,0.034881591796875,-0.2238616943359375,-1.0391387939453125,33.46875,14.818130493164062,-74.75001525878906,,,,,,,,,,
0,2018-10-30 16:36:11.9010,00:08,60,0,2018-10-30 16:36:13.6770,1540931773.676879,-0.0712321023085674,-0.22206582328349422,0.2546083202237175,0.044281005859375,-0.2349395751953125,-1.0730743408203125,33.44230651855469,14.979324340820312,-74.51126098632812,,,,,,,,,,
0,2018-10-30 16:36:11.9010,00:08,60,0,2018-10-30 16:36:13.6930,1540931773.693173,-0.038764706511084386,-0.23445937604839598,0.3006322712341398,0.0374755859375,-0.2203826904296875,-1.13726806640625,33.236236572265625,14.786544799804688,-74.68576049804688,,,,,,,,,,
0,2018-10-30 16:36:11.9010,00:08,60,0,2018-10-30 16:36:13.7090,1540931773.7090502,-0.010018545704769085,-0.19490424332577608,0.347792060449481,0.00823974609375,-0.188995361328125,-1.202484130859375,33.236236572265625,14.786544799804688,-74.68576049804688,,,,,,,,,,
0,2018-10-30 16:36:11.9010,00:08,60,0,2018-10-30 16:36:13.7260,1540931773.7264009,0.08420116418503527,-0.034845864967032784,0.39722645555185887,-0.004425048828125,-0.1523284912109375,-1.294677734375,33.48358154296875,14.737701416015625,-74.67413330078125,,,,,,,,,,
0,2018-10-30 16:36:11.9010,00:08,60,0,2018-10-30 16:36:13.7440,1540931773.743857,0.22886513986257553,0.22624538829826457,0.4853243570438981,-0.004425048828125,-0.1523284912109375,-1.294677734375,33.574462890625,14.564559936523438,-74.59756469726562,,,,,,,,,,
0,2018-10-30 16:36:11.9010,00:08,60,0,2018-10-30 16:36:13.7600,1540931773.760463,0.2653280762435044,0.30566031937220944,0.5539486920130599,0.0084381103515625,-0.14501953125,-1.2626190185546875,33.9268798828125,14.262100219726562,-74.51161193847656,,,,,,,,,,
0,2018-10-30 16:36:11.9010,00:08,60,0,2018-10-30 16:36:13.7770,1540931773.777375,0.18207845951595447,0.1972853756564159,0.5367012618453797,0.0145263671875,-0.1849365234375,-1.133819580078125,34.12528991699219,14.14483642578125,-74.66128540039062,,,,,,,,,,
0,2018-10-30 16:36:11.9010,00:08,60,0,2018-10-30 16:36:13.7940,1540931773.7939591,0.04413683506199222,-0.030207703612550783,0.415446472149636,0.0145263671875,-0.1849365234375,-1.133819580078125,34.216156005859375,13.971710205078125,-74.58473205566406,,,,,,,,,,
0,2018-10-30 16:36:11.9010,00:08,60,0,2018-10-30 16:36:13.8110,1540931773.810602,-0.10366620859242442,-0.3071716632908294,0.24701511532368356,7.62939453125e-05,-0.180145263671875,-1.141448974609375,33.95332336425781,14.100936889648438,-74.75035095214844,,,,,,,,,,
0,2018-10-30 16:36:11.9010,00:08,60,0,2018-10-30 16:36:13.8270,1540931773.827359,-0.08928647028654157,-0.37496269515490543,0.1248497908512417,-0.0233154296875,-0.0067291259765625,-1.2813873291015625,33.95332336425781,14.100936889648438,-74.75035095214844,,,,,,,,,,
0,2018-10-30 16:36:11.9010,00:08,60,0,2018-10-30 16:36:13.8440,1540931773.843934,0.08100430561250416,-0.2089734570485557,0.13143871770420676,-0.0233154296875,-0.0067291259765625,-1.2813873291015625,33.78071594238281,14.05694580078125,-74.91749572753906,,,,,,,,,,
0,2018-10-30 16:36:11.9010,00:08,60,0,2018-10-30 16:36:13.8610,1540931773.860615,0.24890702496207584,0.06791753201585478,0.2698810164431039,0.063934326171875,0.0639495849609375,-1.1778106689453125,33.837493896484375,13.7349853515625,-74.9263916015625,,,,,,,,,,
0,2018-10-30 16:36:11.9010,00:08,60,0,2018-10-30 16:36:13.8780,1540931773.878268,0.29807350605879174,0.2841936430895167,0.43397781227884336,0.0756988525390625,0.0297088623046875,-1.037109375,34.04615783691406,13.927993774414062,-74.43949890136719,,,,,,,,,,
0,2018-10-30 16:36:11.9010,00:08,60,0,2018-10-30 16:36:13.8950,1540931773.8949652,0.27327654683295494,0.35124724564774984,0.4951056150955411,0.0756988525390625,0.0297088623046875,-1.037109375,34.39726257324219,13.625396728515625,-74.50971984863281,,,,,,,,,,
0,2018-10-30 16:36:11.9010,00:08,60,0,2018-10-30 16:36:13.9110,1540931773.910806,0.1875914692885275,0.19660067694015654,0.42425860588059916,0.0261383056640625,-0.063262939453125,-0.853118896484375,34.36756896972656,13.786239624023438,-74.66146850585938,,,,,,,,,,
0,2018-10-30 16:36:11.9010,00:08,60,0,2018-10-30 16:36:13.9280,1540931773.9283972,0.08251724742777818,-0.12418772900424802,0.293243064473606,0.0165863037109375,-0.0807342529296875,-0.850860595703125,34.329071044921875,13.327713012695312,-74.68061828613281,,,,,,,,,,
0,2018-10-30 16:36:11.9010,00:08,60,0,2018-10-30 16:36:13.9440,1540931773.9439921,0.013828463960236445,-0.3890859710478137,0.16335856758156947,0.0165863037109375,-0.0807342529296875,-0.850860595703125,34.329071044921875,13.327713012695312,-74.68061828613281,,,,,,,,,,
0,2018-10-30 16:36:11.9010,00:08,60,0,2018-10-30 16:36:13.9610,1540931773.96067,-0.019408319076170463,-0.46735600916913345,0.07117590960956673,0.010650634765625,-0.060150146484375,-0.92822265625,34.041748046875,13.6182861328125,-74.37321472167969,,,,,,,,,,
0,2018-10-30 16:36:11.9010,00:08,60,0,2018-10-30 16:36:13.9780,1540931773.977567,-0.03062395569093017,-0.32648490751608406,0.032801356198178956,0.01171875,-0.0528564453125,-0.9413299560546875,34.104888916015625,13.606201171875,-74.21409606933594,,,,,,,,,,
0,2018-10-30 16:36:11.9010,00:08,60,0,2018-10-30 16:36:13.9940,1540931773.993962,-0.01335681813118341,-0.06172488353309353,0.05025757819532133,0.0266571044921875,-0.057098388671875,-0.9313812255859375,33.92573547363281,13.952728271484375,-74.05484008789062,,,,,,,,,,
0,2018-10-30 16:36:11.9010,00:08,60,0,2018-10-30 16:36:14.0110,1540931774.0107799,-0.0008096009713840885,0.15540823277935592,0.08800256032501438,0.04534912109375,-0.0703582763671875,-0.885040283203125,34.077789306640625,13.767333984375,-74.053466796875,,,,,,,,,,
0,2018-10-30 16:36:11.9010,00:08,60,0,2018-10-30 16:36:14.0270,1540931774.0274,-0.01738831138934536,0.1954198313128154,0.12981951576143858,0.062835693359375,-0.0924072265625,-0.8398895263671875,34.305877685546875,13.489212036132812,-74.05142211914062,,,,,,,,,,
0,2018-10-30 16:36:11.9010,00:08,60,0,2018-10-30 16:36:14.0440,1540931774.044045,-0.01759630427048055,0.06666318314242746,0.14144021917799934,0.0695648193359375,-0.112548828125,-0.8298797607421875,34.305877685546875,13.489212036132812,-74.05142211914062,,,,,,,,,,
0,2018-10-30 16:36:11.9010,00:08,60,0,2018-10-30 16:36:14.0610,1540931774.060725,0.024085096266458616,-0.10021049076193761,0.11766538117853495,0.0721435546875,-0.1268768310546875,-0.8423919677734375,34.485687255859375,13.142745971679688,-74.13258361816406,,,,,,,,,,
0,2018-10-30 16:36:11.9010,00:08,60,0,2018-10-30 16:36:14.0780,1540931774.077661,-0.024337563937798127,-0.19929233385389963,0.12719257366218442,0.0672149658203125,-0.1270904541015625,-0.836456298828125,34.25823974609375,13.420928955078125,-74.05656433105469,,,,,,,,,,
0,2018-10-30 16:36:11.9010,00:08,60,0,2018-10-30 16:36:14.0940,1540931774.094168,-0.024337563937798127,-0.19929233385389963,0.12719257366218442,0.0609893798828125,-0.132415771484375,-0.8474273681640625,34.20146179199219,13.742904663085938,-74.04765319824219,,,,,,,,,,
0,2018-10-30 16:36:11.9010,00:08,60,0,2018-10-30 16:36:14.1110,1540931774.110742,-0.05752214901683948,-0.13951528634209007,0.1347703322278959,0.040374755859375,-0.1278839111328125,-0.881011962890625,34.09002685546875,13.6866455078125,-74.28996276855469,,,,,,,,,,
0,2018-10-30 16:36:11.9010,00:08,60,0,2018-10-30 16:36:14.1280,1540931774.1278849,-0.027175961027604577,-0.07455013471069712,0.04489077596659365,0.02813720703125,-0.1337738037109375,-0.9094085693359375,34.195098876953125,13.432998657226562,-74.21563720703125,,,,,,,,,,
0,2018-10-30 16:36:11.9010,00:08,60,0,2018-10-30 16:36:14.1440,1540931774.144115,-0.027175961027604577,-0.07455013471069712,0.04489077596659365,0.026031494140625,-0.1431427001953125,-0.9056549072265625,34.195098876953125,13.432998657226562,-74.21563720703125,,,,,,,,,,
0,2018-10-30 16:36:11.9010,00:08,60,0,2018-10-30 16:36:14.1620,1540931774.1618872,-0.09767729193305423,-0.07574962246566881,-0.026841467994690626,0.034637451171875,-0.1547088623046875,-0.898193359375,34.09393310546875,13.687026977539062,-73.82139587402344,,,,,,,,,,
0,2018-10-30 16:36:11.9010,00:08,60,0,2018-10-30 16:36:14.1780,1540931774.177771,-0.2110512553310355,-0.042947733635271844,-0.11351351303910141,0.04437255859375,-0.1636199951171875,-0.9292755126953125,34.15576171875,13.6748046875,-73.8184814453125,,,,,,,,,,
0,2018-10-30 16:36:11.9010,00:08,60,0,2018-10-30 16:36:14.1940,1540931774.19413,-0.2110512553310355,-0.042947733635271844,-0.11351351303910141,0.0535125732421875,-0.165802001953125,-0.9981842041015625,34.09898376464844,13.99676513671875,-73.80958557128906,,,,,,,,,,
0,2018-10-30 16:36:11.9010,00:08,60,0,2018-10-30 16:36:14.2110,1540931774.210664,-0.08449171505996292,-0.15440954737057622,-0.13295698584166094,0.0594940185546875,-0.162078857421875,-1.047637939453125,33.97221374511719,13.711639404296875,-73.59292602539062,,,,,,,,,,
0,2018-10-30 16:36:11.9010,00:08,60,0,2018-10-30 16:36:14.2280,1540931774.22753,-0.08156436838974782,-0.18781331060733109,-0.1715499184624352,0.049530029296875,-0.1609649658203125,-1.0695648193359375,33.80726623535156,13.9776611328125,-73.43588256835938,,,,,,,,,,
0,2018-10-30 16:36:11.9010,00:08,60,0,2018-10-30 16:36:14.2440,1540931774.2442021,-0.08156436838974782,-0.18781331060733109,-0.1715499184624352,0.03118896484375,-0.164093017578125,-1.0805511474609375,33.80726623535156,13.9776611328125,-73.43588256835938,,,,,,,,,,
0,2018-10-30 16:36:11.9010,00:08,60,0,2018-10-30 16:36:14.2610,1540931774.26074,-0.14192464818028475,-0.13372956887389292,-0.29783035945126746,0.022003173828125,-0.1638641357421875,-1.1161041259765625,33.77122497558594,13.828643798828125,-73.755615234375,,,,,,,,,,
0,2018-10-30 16:36:11.9010,00:08,60,0,2018-10-30 16:36:14.2780,1540931774.2776031,-0.10483879842038632,-0.10930705009732126,-0.273179341453167,0.0479278564453125,-0.15283203125,-1.1669158935546875,33.618499755859375,14.01397705078125,-73.83509826660156,,,,,,,,,,
0,2018-10-30 16:36:11.9010,00:08,60,0,2018-10-30 16:36:14.2940,1540931774.294262,-0.10483879842038632,-0.10930705009732126,-0.273179341453167,0.0669708251953125,-0.136444091796875,-1.22186279296875,33.49809265136719,14.038711547851562,-73.45042419433594,,,,,,,,,,
0,2018-10-30 16:36:11.9010,00:08,60,0,2018-10-30 16:36:14.3110,1540931774.3109531,0.14227991386970132,-0.05143016802328322,-0.19285281033808804,0.0520172119140625,-0.1244049072265625,-1.2532806396484375,33.39366149902344,14.292388916015625,-73.44664001464844,,,,,,,,,,
0,2018-10-30 16:36:11.9010,00:08,60,0,2018-10-30 16:36:14.3280,1540931774.327839,0.26602928655852226,0.10942209865641268,-0.1423536834318965,0.0233001708984375,-0.117034912109375,-1.23406982421875,33.47035217285156,14.199783325195312,-73.36787414550781,,,,,,,,,,
0,2018-10-30 16:36:11.9010,00:08,60,0,2018-10-30 16:36:14.3450,1540931774.3445249,0.30183655267907367,0.21613203405868867,-0.13580550294360968,0.0071868896484375,-0.1357421875,-1.17852783203125,33.726165771484375,13.760604858398438,-73.4483642578125,,,,,,,,,,
0,2018-10-30 16:36:11.9010,00:08,60,0,2018-10-30 16:36:14.3610,1540931774.3609939,0.20427670615009194,0.14059120342248208,-0.21511896758002252,-0.0151824951171875,-0.1608428955078125,-1.11669921875,33.726165771484375,13.760604858398438,-73.4483642578125,,,,,,,,,,
0,2018-10-30 16:36:11.9010,00:08,60,0,2018-10-30 16:36:14.3780,1540931774.37759,0.20427670615009194,0.14059120342248208,-0.21511896758002252,-0.0297393798828125,-0.1576995849609375,-1.0864715576171875,33.721771240234375,13.450927734375,-73.382080078125,,,,,,,,,,
0,2018-10-30 16:36:11.9010,00:08,60,0,2018-10-30 16:36:14.3960,1540931774.395557,0.024839037171060046,0.07817522958651298,-0.4046952908289861,-0.0352630615234375,-0.158538818359375,-1.104461669921875,33.78361511230469,13.438705444335938,-73.37916564941406,,,,,,,,,,
0,2018-10-30 16:36:11.9010,00:08,60,0,2018-10-30 16:36:14.4140,1540931774.413744,-0.06977082581844092,0.07427076911234781,-0.5535271136125003,-0.0665283203125,-0.1377716064453125,-1.1371612548828125,33.6123046875,13.394851684570312,-73.39012145996094,,,,,,,,,,
0,2018-10-30 16:36:11.9010,00:08,60,0,2018-10-30 16:36:14.4170,1540931774.416925,-0.06977082581844092,0.07427076911234781,-0.5535271136125003,-0.0665283203125,-0.1377716064453125,-1.1371612548828125,33.6123046875,13.394851684570312,-73.39012145996094,,,,,,,,,,
0,2018-10-30 16:36:11.9010,00:08,60,0,2018-10-30 16:36:14.4460,1540931774.445543,-0.006073871498143719,0.10314129954156981,-0.6231128497351808,-0.0709075927734375,-0.055633544921875,-1.198333740234375,33.48272705078125,13.809844970703125,-72.99140930175781,,,,,,,,,,
0,2018-10-30 16:36:11.9010,00:08,60,0,2018-10-30 16:36:14.4610,1540931774.46118,0.1032249227997983,0.08445230027582974,-0.539635000102211,-0.0389862060546875,-0.027618408203125,-1.201019287109375,33.48272705078125,13.809844970703125,-72.99140930175781,,,,,,,,,,
0,2018-10-30 16:36:11.9010,00:08,60,0,2018-10-30 16:36:14.4780,1540931774.477529,0.2244011492433847,0.10654481941469107,-0.4047083403183275,0.000396728515625,-0.02166748046875,-1.1527862548828125,33.371307373046875,13.753570556640625,-73.2337646484375,,,,,,,,,,
0,2018-10-30 16:36:11.9010,00:08,60,0,2018-10-30 16:36:14.4940,1540931774.4942951,0.27873203232598226,0.18781437587176714,-0.30181844318366113,0.00701904296875,-0.018798828125,-1.0840911865234375,33.70820617675781,13.531478881835938,-73.30177307128906,,,,,,,,,,
0,2018-10-30 16:36:11.9010,00:08,60,0,2018-10-30 16:36:14.5110,1540931774.511026,0.25172411676316164,0.24620205224288236,-0.23213390378453877,-0.02349853515625,-0.0402984619140625,-0.922210693359375,33.62843322753906,13.314529418945312,-73.15805053710938,,,,,,,,,,
0,2018-10-30 16:36:11.9010,00:08,60,0,2018-10-30 16:36:14.5280,1540931774.527587,0.19726540194824033,0.18277700666988225,-0.19900231561119,-0.02349853515625,-0.0402984619140625,-0.922210693359375,33.965362548828125,13.092453002929688,-73.22607421875,,,,,,,,,,
0,2018-10-30 16:36:11.9010,00:08,60,0,2018-10-30 16:36:14.5440,1540931774.5442882,0.1596655620979566,0.004603806576419979,-0.1820792584642815,-0.027923583984375,-0.0503997802734375,-0.891693115234375,33.76435852050781,13.209442138671875,-73.38876342773438,,,,,,,,,,
0,2018-10-30 16:36:11.9010,00:08,60,0,2018-10-30 16:36:14.5610,1540931774.561096,0.17723203896422826,-0.13841007448970719,-0.1640552505227342,-0.036865234375,-0.07073974609375,-0.8946990966796875,33.82307434082031,12.887664794921875,-73.16336059570312,,,,,,,,,,
0,2018-10-30 16:36:11.9010,00:08,60,0,2018-10-30 16:36:14.5780,1540931774.5775928,0.23179035600391856,-0.16705130674907334,-0.16517457712889452,-0.036865234375,-0.07073974609375,-0.8946990966796875,33.82307434082031,12.887664794921875,-73.16336059570312,,,,,,,,,,
0,2018-10-30 16:36:11.9010,00:08,60,0,2018-10-30 16:36:14.5940,1540931774.5944781,0.2564509613819433,-0.13359960661269704,-0.20476113515237734,-0.054046630859375,-0.0820465087890625,-0.8829345703125,33.787689208984375,12.73870849609375,-73.40501403808594,,,,,,,,,,
0,2018-10-30 16:36:11.9010,00:08,60,0,2018-10-30 16:36:14.6110,1540931774.6111078,0.2716616059479309,-0.09892418395542933,-0.2571942496421844,-0.0716552734375,-0.1062164306640625,-0.8569183349609375,33.56938171386719,12.626632690429688,-73.34300231933594,,,,,,,,,,
0,2018-10-30 16:36:11.9010,00:08,60,0,2018-10-30 16:36:14.6280,1540931774.627602,0.2665272976823671,-0.09118796730485816,-0.28609673800448737,-0.0716552734375,-0.1062164306640625,-0.8569183349609375,33.38258361816406,12.663116455078125,-73.50791931152344,,,,,,,,,,
0,2018-10-30 16:36:11.9010,00:08,60,0,2018-10-30 16:36:14.6440,1540931774.644326,0.2404259221546095,-0.06390148509201529,-0.2849859335138153,-0.04608154296875,-0.1330413818359375,-0.8226776123046875,33.4000244140625,12.582931518554688,-73.11965942382812,,,,,,,,,,
0,2018-10-30 16:36:11.9010,00:08,60,0,2018-10-30 16:36:14.6620,1540931774.6621509,0.18793075601140358,-0.0417397237648119,-0.2913711285433893,-0.047210693359375,-0.141021728515625,-0.8087615966796875,33.669403076171875,12.063247680664062,-73.28048706054688,,,,,,,,,,
0,2018-10-30 16:36:11.9010,00:08,60,0,2018-10-30 16:36:14.6780,1540931774.677702,0.10600339876507797,-0.01488334206801683,-0.3191606818861481,-0.047210693359375,-0.141021728515625,-0.8087615966796875,33.669403076171875,12.063247680664062,-73.28048706054688,,,,,,,,,,
0,2018-10-30 16:36:11.9010,00:08,60,0,2018-10-30 16:36:14.6950,1540931774.6945071,-0.013920343017844177,0.010140252166585708,-0.33837645441550585,-0.047698974609375,-0.1384735107421875,-0.7994384765625,33.34602355957031,12.20477294921875,-73.29280090332031,,,,,,,,,,
0,2018-10-30 16:36:11.9010,00:08,60,0,2018-10-30 16:36:14.7110,1540931774.7111158,-0.09243565827556027,-0.04101481131609233,-0.3405623770382429,-0.0538177490234375,-0.1368255615234375,-0.861419677734375,33.38861083984375,11.96331787109375,-73.29946899414062,,,,,,,,,,
0,2018-10-30 16:36:11.9010,00:08,60,0,2018-10-30 16:36:14.7280,1540931774.727767,-0.07369792316187176,-0.0682006260397302,-0.3491673168363979,-0.0538177490234375,-0.1368255615234375,-0.861419677734375,33.1939697265625,12.390182495117188,-73.29415893554688,,,,,,,,,,
0,2018-10-30 16:36:11.9010,00:08,60,0,2018-10-30 16:36:14.7450,1540931774.7447271,-0.06612895302775756,-0.04986449561842564,-0.35450082955149964,-0.063323974609375,-0.1328887939453125,-0.9169769287109375,33.243560791015625,12.458663940429688,-73.05474853515625,,,,,,,,,,
0,2018-10-30 16:36:11.9010,00:08,60,0,2018-10-30 16:36:14.7610,1540931774.761106,-0.12091150823123253,0.06424316865987245,-0.3575594700634556,-0.0465240478515625,-0.134002685546875,-0.9085845947265625,33.2293701171875,12.539154052734375,-73.05252075195312,,,,,,,,,,
0,2018-10-30 16:36:11.9010,00:08,60,0,2018-10-30 16:36:14.7780,1540931774.777793,-0.20420773027785888,0.18385691849190938,-0.31669912209058787,-0.0149688720703125,-0.1318817138671875,-0.921295166015625,33.2293701171875,12.539154052734375,-73.05252075195312,,,,,,,,,,
0,2018-10-30 16:36:11.9010,00:08,60,0,2018-10-30 16:36:14.7940,1540931774.794354,-0.21581671578562328,0.20733534666204795,-0.20958119040931175,0.0225830078125,-0.14117431640625,-0.963531494140625,33.489593505859375,12.409683227539062,-73.19929504394531,,,,,,,,,,
0,2018-10-30 16:36:11.9010,00:08,60,0,2018-10-30 16:36:14.8110,1540931774.811085,-0.12734783595373603,0.11513404656241463,-0.0854962594231408,0.019195556640625,-0.1633148193359375,-1.0077362060546875,33.758148193359375,12.590316772460938,-72.94378662109375,,,,,,,,,,
0,2018-10-30 16:36:11.9010,00:08,60,0,2018-10-30 16:36:14.8280,1540931774.827691,-0.0029385319467934313,0.015312111003519587,-0.035318842376630855,-0.0204010009765625,-0.1815032958984375,-1.0276947021484375,33.50230407714844,13.02947998046875,-72.86329650878906,,,,,,,,,,
0,2018-10-30 16:36:11.9010,00:08,60,0,2018-10-30 16:36:14.8450,1540931774.845286,0.07573550771189139,-0.029746177795640052,-0.046101981630361694,-0.0552825927734375,-0.1950225830078125,-1.0252532958984375,33.52809143066406,12.86822509765625,-73.18013000488281,,,,,,,,,,
0,2018-10-30 16:36:11.9010,00:08,60,0,2018-10-30 16:36:14.8620,1540931774.8620791,0.07251681121842163,0.04435681216803277,-0.1766549319560081,-0.0847320556640625,-0.1964569091796875,-1.035003662109375,33.71492004394531,12.83172607421875,-73.01521301269531,,,,,,,,,,
0,2018-10-30 16:36:11.9010,00:08,60,0,2018-10-30 16:36:14.8790,1540931774.878655,0.07251681121842163,0.04435681216803277,-0.1766549319560081,-0.05694580078125,-0.1913604736328125,-1.0491180419921875,33.74461364746094,12.670867919921875,-72.86346435546875,,,,,,,,,,
0,2018-10-30 16:36:11.9010,00:08,60,0,2018-10-30 16:36:14.8940,1540931774.894464,0.03452442142346022,0.04146808133362382,-0.1745076251690772,-0.0207061767578125,-0.1751556396484375,-1.0962982177734375,33.74461364746094,12.670867919921875,-72.86346435546875,,,,,,,,,,
0,2018-10-30 16:36:11.9010,00:08,60,0,2018-10-30 16:36:14.9110,1540931774.911411,0.07344465654220524,0.2870759823373095,-0.01786821301777764,0.0030975341796875,-0.1670684814453125,-1.142333984375,33.90106201171875,12.795150756835938,-72.92839050292969,,,,,,,,,,
0,2018-10-30 16:36:11.9010,00:08,60,0,2018-10-30 16:36:14.9280,1540931774.927692,0.07344465654220524,0.2870759823373095,-0.01786821301777764,0.001495361328125,-0.155548095703125,-1.16876220703125,33.82502746582031,12.887863159179688,-72.9290771484375,,,,,,,,,,
0,2018-10-30 16:36:11.9010,00:08,60,0,2018-10-30 16:36:14.9440,1540931774.9444752,0.16001230567188493,0.4169570171199289,0.022963905447535255,-0.0290985107421875,-0.1479034423828125,-1.187286376953125,34.27207946777344,12.721893310546875,-72.91093444824219,,,,,,,,,,
0,2018-10-30 16:36:11.9010,00:08,60,0,2018-10-30 16:36:14.9620,1540931774.962102,0.34148383077541034,0.5214999383432074,-0.04869856369318895,-0.0514678955078125,-0.15704345703125,-1.18487548828125,34.49952697753906,12.4437255859375,-72.98696899414062,,,,,,,,,,
0,2018-10-30 16:36:11.9010,00:08,60,0,2018-10-30 16:36:14.9790,1540931774.97876,0.34148383077541034,0.5214999383432074,-0.04869856369318895,-0.021942138671875,-0.1804351806640625,-1.1195526123046875,34.993560791015625,12.345962524414062,-73.04179382324219,,,,,,,,,,
0,2018-10-30 16:36:11.9010,00:08,60,0,2018-10-30 16:36:14.9950,1540931774.995384,-0.035931369427349084,0.07224090772948942,-0.12733478646439464,0.0275421142578125,-0.1983489990234375,-1.0857391357421875,34.993560791015625,12.345962524414062,-73.04179382324219,,,,,,,,,,
0,2018-10-30 16:36:11.9010,00:08,60,0,2018-10-30 16:36:15.0110,1540931775.0112271,-0.035931369427349084,0.07224090772948942,-0.12733478646439464,0.021636962890625,-0.1673583984375,-1.1152191162109375,35.0966796875,12.092147827148438,-73.20176696777344,,,,,,,,,,
0,2018-10-30 16:36:11.9010,00:08,60,0,2018-10-30 16:36:15.0280,1540931775.027812,-0.31113870805061145,-0.2826804349581337,-0.2401468228723692,-0.04736328125,-0.0849456787109375,-1.28448486328125,34.91313171386719,12.128982543945312,-72.9761962890625,,,,,,,,,,
0,2018-10-30 16:36:11.9010,00:08,60,0,2018-10-30 16:36:15.0440,1540931775.044468,0.06510230442753202,0.10578209007849237,-0.3725450775173315,-0.0808868408203125,-0.0028076171875,-1.4329986572265625,34.58320617675781,12.6610107421875,-72.66209411621094,,,,,,,,,,
0,2018-10-30 16:36:11.9010,00:08,60,0,2018-10-30 16:36:15.0610,1540931775.0610828,0.06510230442753202,0.10578209007849237,-0.3725450775173315,-0.0749053955078125,0.0911407470703125,-1.436981201171875,34.53802490234375,12.902252197265625,-72.96780395507812,,,,,,,,,,
0,2018-10-30 16:36:11.9010,00:08,60,0,2018-10-30 16:36:15.0780,1540931775.0779061,0.40166221666349483,0.49767956028910265,-0.18688360107078442,0.0009002685546875,0.0706939697265625,-1.2909088134765625,34.973663330078125,12.116622924804688,-73.12947082519531,,,,,,,,,,
0,2018-10-30 16:36:11.9010,00:08,60,0,2018-10-30 16:36:15.0950,1540931775.094569,0.4915439034536691,0.3393751398242856,-0.03503814519773651,0.0067291259765625,0.0319976806640625,-1.082977294921875,34.973663330078125,12.116622924804688,-73.12947082519531,,,,,,,,,,
0,2018-10-30 16:36:11.9010,00:08,60,0,2018-10-30 16:36:15.1110,1540931775.111145,0.4915439034536691,0.3393751398242856,-0.03503814519773651,-0.025177001953125,-0.0223541259765625,-0.9473876953125,35.12635803222656,11.931289672851562,-73.05000305175781,,,,,,,,,,
0,2018-10-30 16:36:11.9010,00:08,60,0,2018-10-30 16:36:15.1280,1540931775.127805,0.19210046733014066,-0.3379713876137048,-0.6044291767916209,-0.0785369873046875,-0.047393798828125,-0.9208221435546875,35.18315124511719,11.609329223632812,-73.05889892578125,,,,,,,,,,
0,2018-10-30 16:36:11.9010,00:08,60,0,2018-10-30 16:36:15.1450,1540931775.144614,0.14141305493488052,-0.291093360841694,-0.8453030426415816,-0.11419677734375,-0.0228424072265625,-0.9597015380859375,34.752899169921875,11.695053100585938,-72.76687622070312,,,,,,,,,,
0,2018-10-30 16:36:11.9010,00:08,60,0,2018-10-30 16:36:15.1610,1540931775.1613889,0.14141305493488052,-0.291093360841694,-0.8453030426415816,-0.109375,0.014434814453125,-0.9771728515625,34.484375,11.514450073242188,-73.02239990234375,,,,,,,,,,
0,2018-10-30 16:36:11.9010,00:08,60,0,2018-10-30 16:36:15.1780,1540931775.178184,0.11873996667838192,0.04312962753772426,-1.062270244018119,-0.0787506103515625,0.0436248779296875,-0.973297119140625,34.16163635253906,11.656051635742188,-72.95661926269531,,,,,,,,,,
0,2018-10-30 16:36:11.9010,00:08,60,0,2018-10-30 16:36:15.1950,1540931775.194715,0.14363466391622462,0.10782579989901919,-1.0718341881248117,-0.042755126953125,0.06304931640625,-0.9558258056640625,34.19915771484375,11.104812622070312,-72.97511291503906,,,,,,,,,,
0,2018-10-30 16:36:11.9010,00:08,60,0,2018-10-30 16:36:15.2120,1540931775.212225,0.14363466391622462,0.10782579989901919,-1.0718341881248117,-0.01416015625,0.0621795654296875,-0.923065185546875,34.19915771484375,11.104812622070312,-72.97511291503906,,,,,,,,,,
0,2018-10-30 16:36:11.9010,00:08,60,0,2018-10-30 16:36:15.2280,1540931775.227882,0.13635997308256417,-0.12742826341865643,-1.1888465622040594,-0.017120361328125,0.054901123046875,-0.88525390625,34.1572265625,11.346359252929688,-72.89033508300781,,,,,,,,,,
0,2018-10-30 16:36:11.9010,00:08,60,0,2018-10-30 16:36:15.2450,1540931775.244637,0.14977617970605636,-0.2989845734677078,-1.326131717449317,-0.035064697265625,0.0464324951171875,-0.884765625,33.723724365234375,11.431777954101562,-72.98878479003906,,,,,,,,,,
0,2018-10-30 16:36:11.9010,00:08,60,0,2018-10-30 16:36:15.2620,1540931775.261879,0.11928857786293824,-0.4311729710187719,-1.4654994646670167,-0.0561065673828125,0.0579833984375,-0.8943328857421875,33.08415222167969,11.324417114257812,-73.26176452636719,,,,,,,,,,
0,2018-10-30 16:36:11.9010,00:08,60,0,2018-10-30 16:36:15.2780,1540931775.277975,0.09877584588271192,-0.5190040237695852,-1.6315864407853724,-0.0797882080078125,0.0700225830078125,-0.918121337890625,32.68231201171875,11.249191284179688,-72.97418212890625,,,,,,,,,,
0,2018-10-30 16:36:11.9010,00:08,60,0,2018-10-30 16:36:15.2950,1540931775.294817,0.08051881134578272,-0.5832069786969974,-1.7612355142370457,-0.0720672607421875,0.104156494140625,-0.982330322265625,32.19610595703125,10.956558227539062,-73.08958435058594,,,,,,,,,,
0,2018-10-30 16:36:11.9010,00:08,60,0,2018-10-30 16:36:15.3110,1540931775.311356,0.06587861588529012,-0.5913551863682038,-1.8522652897731533,-0.0720672607421875,0.104156494140625,-0.982330322265625,32.19610595703125,10.956558227539062,-73.08958435058594,,,,,,,,,,
0,2018-10-30 16:36:11.9010,00:08,60,0,2018-10-30 16:36:15.3280,1540931775.327914,0.11660730727744646,-0.4813123048616937,-1.903543124982084,-0.05780029296875,0.1142425537109375,-1.0119171142578125,31.681533813476562,10.824905395507812,-73.20054626464844,,,,,,,,,,
0,2018-10-30 16:36:11.9010,00:08,60,0,2018-10-30 16:36:15.3450,1540931775.344826,0.139982937429508,-0.3613323703797709,-1.939810052706783,-0.040679931640625,0.10406494140625,-0.979461669921875,30.970474243164062,10.810699462890625,-72.92750549316406,,,,,,,,,,
0,2018-10-30 16:36:11.9010,00:08,60,0,2018-10-30 16:36:15.3610,1540931775.3613172,0.04235944135047334,-0.33198646569596973,-2.011498088193972,-0.040679931640625,0.10406494140625,-0.979461669921875,30.459152221679688,10.67938232421875,-72.64797973632812,,,,,,,,,,
0,2018-10-30 16:36:11.9010,00:08,60,0,2018-10-30 16:36:15.3780,1540931775.377989,-0.0781019926565358,-0.3823319282072637,-2.1154047802328306,-0.020843505859375,0.0728759765625,-0.9389190673828125,29.9625244140625,10.776885986328125,-72.90554809570312,,,,,,,,,,
0,2018-10-30 16:36:11.9010,00:08,60,0,2018-10-30 16:36:15.3950,1540931775.394743,-0.11954903501754799,-0.4420501198589825,-2.2289798122931126,0.0145111083984375,0.05194091796875,-0.99957275390625,29.580734252929688,10.230545043945312,-73.02470397949219,,,,,,,,,,
0,2018-10-30 16:36:11.9010,00:08,60,0,2018-10-30 16:36:15.4110,1540931775.411343,-0.11964410986846383,-0.4698583153293719,-2.3071869998127066,0.0145111083984375,0.05194091796875,-0.99957275390625,29.580734252929688,10.230545043945312,-73.02470397949219,,,,,,,,,,
0,2018-10-30 16:36:11.9010,00:08,60,0,2018-10-30 16:36:15.4310,1540931775.4306421,-0.15269314004802015,-0.5116510359998764,-2.3254352459180385,0.076751708984375,0.05133056640625,-1.0185394287109375,29.144119262695312,10.00640869140625,-72.90069580078125,,,,,,,,,,
0,2018-10-30 16:36:11.9010,00:08,60,0,2018-10-30 16:36:15.4340,1540931775.43383,-0.15269314004802015,-0.5116510359998764,-2.3254352459180385,0.076751708984375,0.05133056640625,-1.0185394287109375,28.631484985351562,9.874954223632812,-72.77735900878906,,,,,,,,,,
0,2018-10-30 16:36:11.9010,00:08,60,0,2018-10-30 16:36:15.4610,1540931775.4613562,-0.2378716843531145,-0.587794806306877,-2.283745056949502,0.093719482421875,0.03668212890625,-1.02740478515625,27.82891845703125,10.033843994140625,-72.65898132324219,,,,,,,,,,
0,2018-10-30 16:36:11.9010,00:08,60,0,2018-10-30 16:36:15.4780,1540931775.478115,-0.22436972394252178,-0.6180552405090113,-2.3223366579897315,0.05755615234375,0.0115203857421875,-1.0976104736328125,27.172714233398438,9.697479248046875,-72.62913513183594,,,,,,,,,,
0,2018-10-30 16:36:11.9010,00:08,60,0,2018-10-30 16:36:15.4950,1540931775.494911,-0.1359676894539955,-0.651086427509264,-2.3887921145671327,0.057525634765625,0.0145416259765625,-1.123382568359375,26.536407470703125,9.590423583984375,-72.51161193847656,,,,,,,,,,
0,2018-10-30 16:36:11.9010,00:08,60,0,2018-10-30 16:36:15.5110,1540931775.511451,-0.0465560505962202,-0.6831442291310929,-2.430616793170718,0.057525634765625,0.0145416259765625,-1.123382568359375,26.221527099609375,9.3416748046875,-72.61607360839844,,,,,,,,,,
0,2018-10-30 16:36:11.9010,00:08,60,0,2018-10-30 16:36:15.5280,1540931775.5281382,0.008321845774279604,-0.6782629211690867,-2.4306239837056616,0.079833984375,0.0326080322265625,-1.0901336669921875,26.221527099609375,9.3416748046875,-72.61607360839844,,,,,,,,,,
0,2018-10-30 16:36:11.9010,00:08,60,0,2018-10-30 16:36:15.5450,1540931775.544808,0.08382752268409716,-0.6044808421167683,-2.3994961579364884,0.06451416015625,0.0452117919921875,-1.06805419921875,25.647232055664062,8.522048950195312,-72.99006652832031,,,,,,,,,,
0,2018-10-30 16:36:11.9010,00:08,60,0,2018-10-30 16:36:15.5610,1540931775.561444,0.1490725725460574,-0.504581674886261,-2.383325710113636,0.0423431396484375,0.0468292236328125,-1.0304107666015625,25.014190673828125,8.41534423828125,-72.4820556640625,,,,,,,,,,
0,2018-10-30 16:36:11.9010,00:08,60,0,2018-10-30 16:36:15.5780,1540931775.57813,0.20455633806455026,-0.3192102166824236,-2.349913691077502,0.0406036376953125,0.0295562744140625,-0.9603271484375,24.661453247070312,7.708099365234375,-72.52757263183594,,,,,,,,,,
0,2018-10-30 16:36:11.9010,00:08,60,0,2018-10-30 16:36:15.5950,1540931775.595055,0.14693272261017876,-0.17473452649395196,-2.366855390352041,0.0257110595703125,-0.0051727294921875,-0.866729736328125,24.500595092773438,7.2741241455078125,-72.39637756347656,,,,,,,,,,
0,2018-10-30 16:36:11.9010,00:08,60,0,2018-10-30 16:36:15.6120,1540931775.611593,-0.15243854184780858,-0.31289213331231963,-2.5318664493900047,-0.01116943359375,-0.0084381103515625,-0.8307952880859375,24.380325317382812,6.598480224609375,-72.50613403320312,,,,,,,,,,
0,2018-10-30 16:36:11.9010,00:08,60,0,2018-10-30 16:36:15.6280,1540931775.62809,-0.5971568828029414,-0.8026511862034177,-2.869684971557139,-0.0671539306640625,0.004150390625,-0.9838104248046875,24.380325317382812,6.598480224609375,-72.50613403320312,,,,,,,,,,
0,2018-10-30 16:36:11.9010,00:08,60,0,2018-10-30 16:36:15.6450,1540931775.6447911,-0.8022794089152425,-1.0512921613725945,-3.2211849511923374,-0.0671539306640625,0.004150390625,-0.9838104248046875,23.669296264648438,6.58428955078125,-72.23309326171875,,,,,,,,,,
0,2018-10-30 16:36:11.9010,00:08,60,0,2018-10-30 16:36:15.6620,1540931775.6624079,-0.6819612529748796,-0.8507321628398172,-3.3548242389052767,-0.0313262939453125,0.1739501953125,-1.3270263671875,23.031692504882812,6.4771270751953125,-72.27177429199219,,,,,,,,,,
0,2018-10-30 16:36:11.9010,00:08,60,0,2018-10-30 16:36:15.6780,1540931775.678122,-0.38939862615978893,-0.42282209678861044,-3.143407065240464,0.043304443359375,0.2177734375,-1.3208770751953125,22.4696044921875,5.96795654296875,-71.77490234375,,,,,,,,,,
0,2018-10-30 16:36:11.9010,00:08,60,0,2018-10-30 16:36:15.6950,1540931775.69503,-0.12922270136115183,0.07396636979975175,-2.768055282250298,0.0569000244140625,0.2177886962890625,-1.2051239013671875,22.549072265625,5.1751708984375,-71.87814331054688,,,,,,,,,,
0,2018-10-30 16:36:11.9010,00:08,60,0,2018-10-30 16:36:15.7120,1540931775.711571,-0.07264011557689229,0.21181132150614412,-2.483049641344416,0.0343017578125,0.175262451171875,-1.0827484130859375,22.694778442382812,4.6798858642578125,-72.04476928710938,,,,,,,,,,
0,2018-10-30 16:36:11.9010,00:08,60,0,2018-10-30 16:36:15.7280,1540931775.728125,-0.023377760680933567,0.09199730196013324,-2.3921860470603296,-0.00689697265625,0.138671875,-1.0394287109375,22.694778442382812,4.6798858642578125,-72.04476928710938,,,,,,,,,,
0,2018-10-30 16:36:11.9010,00:08,60,0,2018-10-30 16:36:15.7450,1540931775.744762,0.05983110968193818,-0.14552817145127098,-2.4289083753314324,-0.0436553955078125,0.11383056640625,-1.01910400390625,22.888763427734375,4.2529449462890625,-72.12815856933594,,,,,,,,,,
0,2018-10-30 16:36:11.9010,00:08,60,0,2018-10-30 16:36:15.7610,1540931775.761444,0.07487743720866787,-0.3519729570447964,-2.500914392252777,-0.05279541015625,0.111358642578125,-1.0055999755859375,22.802642822265625,3.7261199951171875,-72.1524658203125,,,,,,,,,,
0,2018-10-30 16:36:11.9010,00:08,60,0,2018-10-30 16:36:15.7780,1540931775.778285,0.06722164802301707,-0.2707787680465696,-2.500812393183027,-0.0564117431640625,0.12420654296875,-1.020416259765625,22.3919677734375,3.0314788818359375,-71.73233032226562,,,,,,,,,,
0,2018-10-30 16:36:11.9010,00:08,60,0,2018-10-30 16:36:15.7950,1540931775.7947578,0.06722164802301707,-0.2707787680465696,-2.500812393183027,-0.05975341796875,0.133697509765625,-1.0429840087890625,22.269775390625,2.35565185546875,-72.07637023925781,,,,,,,,,,
0,2018-10-30 16:36:11.9010,00:08,60,0,2018-10-30 16:36:15.8110,1540931775.8114982,0.12303271603948064,-0.16112311016255695,-2.4674938511011546,-0.07159423828125,0.13348388671875,-1.04559326171875,22.43292236328125,1.7801971435546875,-71.85475158691406,,,,,,,,,,
0,2018-10-30 16:36:11.9010,00:08,60,0,2018-10-30 16:36:15.8280,1540931775.8280969,0.1310610814616335,-0.11752023889912563,-2.5713155883012395,-0.08489990234375,0.121246337890625,-1.011138916015625,22.655960083007812,1.19232177734375,-71.864501953125,,,,,,,,,,
0,2018-10-30 16:36:11.9010,00:08,60,0,2018-10-30 16:36:15.8450,1540931775.845001,0.1310610814616335,-0.11752023889912563,-2.5713155883012395,-0.0907440185546875,0.1132049560546875,-0.96807861328125,22.655960083007812,1.19232177734375,-71.864501953125,,,,,,,,,,
0,2018-10-30 16:36:11.9010,00:08,60,0,2018-10-30 16:36:15.8620,1540931775.8616009,0.05857729344072887,-0.10678157443559912,-2.6483869376159146,-0.0692291259765625,0.1095123291015625,-0.9571685791015625,23.009872436523438,0.1895904541015625,-72.11676025390625,,,,,,,,,,
0,2018-10-30 16:36:11.9010,00:08,60,0,2018-10-30 16:36:15.8790,1540931775.879414,0.007880559981653474,-0.2284611383252105,-2.662446031326552,-0.02362060546875,0.1119384765625,-0.9821624755859375,22.836105346679688,-0.163787841796875,-71.8271484375,,,,,,,,,,
0,2018-10-30 16:36:11.9010,00:08,60,0,2018-10-30 16:36:15.8950,1540931775.8950648,0.007880559981653474,-0.2284611383252105,-2.662446031326552,0.0004425048828125,0.123321533203125,-1.020477294921875,22.884063720703125,-1.1051177978515625,-71.70346069335938,,,,,,,,,,
0,2018-10-30 16:36:11.9010,00:08,60,0,2018-10-30 16:36:15.9120,1540931775.912158,0.09240050454917123,-0.2946316366659733,-2.546894933737431,0.005462646484375,0.12371826171875,-1.0486907958984375,22.783737182617188,-1.551422119140625,-71.72554016113281,,,,,,,,,,
0,2018-10-30 16:36:11.9010,00:08,60,0,2018-10-30 16:36:15.9280,1540931775.928294,0.08941723149606447,-0.2687686140557778,-2.5158073217007177,0.0064239501953125,0.11279296875,-1.049591064453125,23.254119873046875,-2.1881561279296875,-71.72366333007812,,,,,,,,,,
0,2018-10-30 16:36:11.9010,00:08,60,0,2018-10-30 16:36:15.9530,1540931775.952588,0.04945516775888046,-0.25544428648989337,-2.5061435090531474,0.0175628662109375,0.07958984375,-1.023223876953125,23.415969848632812,-2.76373291015625,-71.65821838378906,,,,,,,,,,
0,2018-10-30 16:36:11.9010,00:08,60,0,2018-10-30 16:36:15.9790,1540931775.9786859,0.08059337985630494,-0.28638808782774205,-2.4162367885487264,0.038299560546875,0.068634033203125,-1.02838134765625,23.503097534179688,-3.246490478515625,-71.43727111816406,,,,,,,,,,
0,2018-10-30 16:36:11.9010,00:08,60,0,2018-10-30 16:36:15.9940,1540931775.994443,0.14889414075302213,-0.2959621519465769,-2.3498716131322785,0.0584716796875,0.0603485107421875,-1.0359649658203125,23.784210205078125,-4.156219482421875,-71.29974365234375,,,,,,,,,,
0,2018-10-30 16:36:11.9010,00:08,60,0,2018-10-30 16:36:16.0120,1540931776.0116,0.1548487026343303,-0.32219641921272946,-2.2952914581716497,0.0738525390625,0.042877197265625,-1.0073089599609375,23.643890380859375,-4.3607940673828125,-71.00274658203125,,,,,,,,,,
0,2018-10-30 16:36:11.9010,00:08,60,0,2018-10-30 16:36:16.0290,1540931776.028769,0.09786051741605169,-0.3196190119097508,-2.2620778446367265,0.077301025390625,0.009765625,-0.9413604736328125,23.975753784179688,-4.89263916015625,-71.08255004882812,,,,,,,,,,
0,2018-10-30 16:36:11.9010,00:08,60,0,2018-10-30 16:36:16.0460,1540931776.046253,0.029598106039031645,-0.2844636876240508,-2.2341756395798575,0.070770263671875,0.0019989013671875,-0.938812255859375,24.156219482421875,-5.2390289306640625,-71.08563232421875,,,,,,,,,,
0,2018-10-30 16:36:11.9010,00:08,60,0,2018-10-30 16:36:16.0630,1540931776.06289,-0.017375261900003974,-0.23214269221613604,-2.2223203116712607,0.0806427001953125,-0.0050201416015625,-0.962493896484375,24.156219482421875,-5.2390289306640625,-71.08563232421875,,,,,,,,,,
0,2018-10-30 16:36:11.9010,00:08,60,0,2018-10-30 16:36:16.0790,1540931776.0792742,0.007352455137490761,-0.17624773462533497,-2.1944149108210835,0.111358642578125,-0.0146484375,-0.9796600341796875,24.460983276367188,-5.6097869873046875,-71.00479125976562,,,,,,,,,,
0,2018-10-30 16:36:11.9010,00:08,60,0,2018-10-30 16:36:16.0970,1540931776.096706,0.023129287751229174,-0.16371117010989597,-2.1215846455423595,0.1484222412109375,-0.0311431884765625,-0.96527099609375,24.713699340820312,-6.3585052490234375,-70.86280822753906,,,,,,,,,,
0,2018-10-30 16:36:11.9010,00:08,60,0,2018-10-30 16:36:16.1130,1540931776.112752,-0.011081945928037726,-0.18655070593452452,-2.0080932367403057,0.1662445068359375,-0.05133056640625,-0.959808349609375,24.973953247070312,-6.4879608154296875,-71.00958251953125,,,,,,,,,,
0,2018-10-30 16:36:11.9010,00:08,60,0,2018-10-30 16:36:16.1290,1540931776.128633,-0.02881513667854835,-0.25595907552860564,-1.9192930596688125,0.144256591796875,-0.0693817138671875,-0.99835205078125,25.455245971679688,-6.8143463134765625,-70.29304504394531,,,,,,,,,,
0,2018-10-30 16:36:11.9010,00:08,60,0,2018-10-30 16:36:16.1450,1540931776.145006,0.0073071813989594135,-0.3353018349370094,-1.909761872443528,0.1252899169921875,-0.090087890625,-1.03289794921875,25.605361938476562,-6.9999237060546875,-70.52597045898438,,,,,,,,,,
0,2018-10-30 16:36:11.9010,00:08,60,0,2018-10-30 16:36:16.1620,1540931776.161726,-0.003985686887412588,-0.41519826553604056,-1.9184246028373377,0.1302337646484375,-0.1022796630859375,-1.043792724609375,25.605361938476562,-6.9999237060546875,-70.52597045898438,,,,,,,,,,
0,2018-10-30 16:36:11.9010,00:08,60,0,2018-10-30 16:36:16.1790,1540931776.178884,-0.07286248952791391,-0.44598094562793944,-1.8991704807882828,0.1389923095703125,-0.0954742431640625,-1.06817626953125,25.607315063476562,-6.999725341796875,-70.29167175292969,,,,,,,,,,
0,2018-10-30 16:36:11.9010,00:08,60,0,2018-10-30 16:36:16.1950,1540931776.1951308,-0.12391022761866176,-0.37210432435692337,-1.8583743149976861,0.1243743896484375,-0.082244873046875,-1.09954833984375,25.8856201171875,-7.209320068359375,-69.97209167480469,,,,,,,,,,
0,2018-10-30 16:36:11.9010,00:08,60,0,2018-10-30 16:36:16.2120,1540931776.2116551,-0.1365125722130257,-0.2562640074734197,-1.8550158025469872,0.105438232421875,-0.06939697265625,-1.125457763671875,26.137725830078125,-7.958099365234375,-69.908203125,,,,,,,,,,
0,2018-10-30 16:36:11.9010,00:08,60,0,2018-10-30 16:36:16.2290,1540931776.2286758,-0.12173628922083007,-0.14181093120173835,-1.8409569751524588,0.1058349609375,-0.04852294921875,-1.1277618408203125,26.288467407226562,-8.143630981445312,-70.06301879882812,,,,,,,,,,
0,2018-10-30 16:36:11.9010,00:08,60,0,2018-10-30 16:36:16.2450,1540931776.244977,-0.08753783871479555,-0.08816581209983623,-1.8141274913826735,0.1031494140625,-0.0388336181640625,-1.143280029296875,26.830795288085938,-8.173049926757812,-70.03462219238281,,,,,,,,,,
0,2018-10-30 16:36:11.9010,00:08,60,0,2018-10-30 16:36:16.2620,1540931776.261841,0.08361207295190974,-0.04347930058885166,-1.76913737950742,0.1239471435546875,-0.031158447265625,-1.1355438232421875,26.830795288085938,-8.173049926757812,-70.03462219238281,,,,,,,,,,
0,2018-10-30 16:36:11.9010,00:08,60,0,2018-10-30 16:36:16.2780,1540931776.278481,0.2516644619547439,0.015173626626835468,-1.6930743029814488,0.1575775146484375,-0.04730224609375,-1.0346832275390625,27.20050048828125,-8.246444702148438,-70.17337036132812,,,,,,,,,,
0,2018-10-30 16:36:11.9010,00:08,60,0,2018-10-30 16:36:16.2950,1540931776.294917,0.23163509371236693,0.02919117502446754,-1.6341547933406446,0.1822357177734375,-0.0814666748046875,-0.9204864501953125,27.666961669921875,-8.492385864257812,-69.53266906738281,,,,,,,,,,
0,2018-10-30 16:36:11.9010,00:08,60,0,2018-10-30 16:36:16.3120,1540931776.311914,0.05110153394476745,0.019863719622574015,-1.5730837158551656,0.1856842041015625,-0.093170166015625,-0.8609619140625,28.217132568359375,-8.91217041015625,-69.67449951171875,,,,,,,,,,
0,2018-10-30 16:36:11.9010,00:08,60,0,2018-10-30 16:36:16.3290,1540931776.328527,-0.11882785099435454,0.014795191435935207,-1.5205768318031634,0.1678009033203125,-0.0999908447265625,-0.8921661376953125,28.418121337890625,-9.0291748046875,-69.51179504394531,,,,,,,,,,
0,2018-10-30 16:36:11.9010,00:08,60,0,2018-10-30 16:36:16.3460,1540931776.3455,-0.14789918376976852,-0.04659892748977048,-1.5152912559876832,0.16412353515625,-0.101104736328125,-0.959991455078125,28.966171264648438,-8.748733520507812,-69.39347839355469,,,,,,,,,,
0,2018-10-30 16:36:11.9010,00:08,60,0,2018-10-30 16:36:16.3620,1540931776.361975,-0.06823711134666428,-0.0875330450248334,-1.477880766890904,0.1772003173828125,-0.1001739501953125,-0.9926605224609375,28.966171264648438,-8.748733520507812,-69.39347839355469,,,,,,,,,,
0,2018-10-30 16:36:11.9010,00:08,60,0,2018-10-30 16:36:16.3790,1540931776.37859,-0.015399995319492203,-0.05912377409641314,-1.4061107060421407,0.198760986328125,-0.1234588623046875,-0.96221923828125,29.393966674804688,-9.143966674804688,-69.38493347167969,,,,,,,,,,
0,2018-10-30 16:36:11.9010,00:08,60,0,2018-10-30 16:36:16.3950,1540931776.395351,-0.07205422013707487,-0.0166199894148575,-1.350359825466313,0.222076416015625,-0.155303955078125,-0.9247283935546875,29.952285766601562,-8.944427490234375,-69.7374267578125,,,,,,,,,,
0,2018-10-30 16:36:11.9010,00:08,60,0,2018-10-30 16:36:16.4130,1540931776.413087,-0.21769637488300123,-0.10453093699837315,-1.196229111061868,0.2514495849609375,-0.17462158203125,-0.955322265625,30.264068603515625,-9.005233764648438,-69.41049194335938,,,,,,,,,,
0,2018-10-30 16:36:11.9010,00:08,60,0,2018-10-30 16:36:16.4290,1540931776.428813,-0.21769637488300123,-0.10453093699837315,-1.196229111061868,0.264068603515625,-0.1724090576171875,-1.0205230712890625,30.51141357421875,-9.0540771484375,-69.39884948730469,,,,,,,,,,
0,2018-10-30 16:36:11.9010,00:08,60,0,2018-10-30 16:36:16.4470,1540931776.446795,-0.12778832279803515,-0.26278848582800485,-1.0561630830063495,0.244415283203125,-0.1654510498046875,-1.07470703125,30.72906494140625,-8.94207763671875,-69.53897094726562,,,,,,,,,,
0,2018-10-30 16:36:11.9010,00:08,60,0,2018-10-30 16:36:16.4630,1540931776.4626698,-0.08781880220979892,-0.156217034802413,-1.0249862550731188,0.21514892578125,-0.1624908447265625,-1.09234619140625,30.934463500976562,-8.749374389648438,-69.44255065917969,,,,,,,,,,
0,2018-10-30 16:36:11.9010,00:08,60,0,2018-10-30 16:36:16.4780,1540931776.4784899,-0.05566725731759929,0.01637764175566029,-0.9862300706775228,0.19287109375,-0.1641998291015625,-1.0902862548828125,30.934463500976562,-8.749374389648438,-69.44255065917969,,,,,,,,,,
0,2018-10-30 16:36:11.9010,00:08,60,0,2018-10-30 16:36:16.4950,1540931776.495091,-0.04449103548697276,0.10031888141830383,-0.906885447056356,0.1893310546875,-0.1710205078125,-1.077880859375,31.2010498046875,-8.568954467773438,-69.42132568359375,,,,,,,,,,
0,2018-10-30 16:36:11.9010,00:08,60,0,2018-10-30 16:36:16.5120,1540931776.5118608,-0.014439126798191614,0.06507620544884925,-0.8212672148552895,0.208770751953125,-0.18536376953125,-1.065277099609375,31.633255004882812,-8.65447998046875,-69.47906494140625,,,,,,,,,,
0,2018-10-30 16:36:11.9010,00:08,60,0,2018-10-30 16:36:16.5280,1540931776.528421,0.039466449458320264,-0.020003801895912183,-0.7721255011567114,0.203948974609375,-0.1907958984375,-1.0601043701171875,31.923828125,-8.944747924804688,-69.39601135253906,,,,,,,,,,
0,2018-10-30 16:36:11.9010,00:08,60,0,2018-10-30 16:36:16.5450,1540931776.545244,0.0945837640108182,-0.09312062330792865,-0.7422448337260223,0.183197021484375,-0.191314697265625,-1.050079345703125,32.23497009277344,-9.005615234375,-69.14717102050781,,,,,,,,,,
0,2018-10-30 16:36:11.9010,00:08,60,0,2018-10-30 16:36:16.5630,1540931776.5630012,0.09821152204772413,-0.15480289626358093,-0.7433926561558465,0.164825439453125,-0.1910247802734375,-1.03643798828125,32.06739807128906,-8.739837646484375,-69.30250549316406,,,,,,,,,,
0,2018-10-30 16:36:11.9010,00:08,60,0,2018-10-30 16:36:16.5790,1540931776.5787559,0.07281934631825462,-0.17278802205321303,-0.7830306131883679,0.144622802734375,-0.191802978515625,-1.020660400390625,32.06739807128906,-8.739837646484375,-69.30250549316406,,,,,,,,,,
0,2018-10-30 16:36:11.9010,00:08,60,0,2018-10-30 16:36:16.5950,1540931776.5954928,0.04210510946637077,-0.19081202999476032,-0.8001792400796061,0.1181793212890625,-0.176025390625,-1.01849365234375,32.29859924316406,-8.7083740234375,-69.52293395996094,,,,,,,,,,
0,2018-10-30 16:36:11.9010,00:08,60,0,2018-10-30 16:36:16.6120,1540931776.6118689,0.02583772257983976,-0.23185986450836962,-0.7745252756149817,0.1032257080078125,-0.1483001708984375,-1.023406982421875,32.37528991699219,-8.801010131835938,-69.44415283203125,,,,,,,,,,
0,2018-10-30 16:36:11.9010,00:08,60,0,2018-10-30 16:36:16.6290,1540931776.628681,0.03447302241442169,-0.2198908196212265,-0.8130636134334095,0.1015777587890625,-0.13873291015625,-1.040740966796875,32.555755615234375,-9.147415161132812,-69.44723510742188,,,,,,,,,,
0,2018-10-30 16:36:11.9010,00:08,60,0,2018-10-30 16:36:16.6450,1540931776.645112,-0.08629307722129252,-0.07991294219778969,-0.9060268439209144,0.0763092041015625,-0.13922119140625,-1.0537261962890625,32.82952880859375,-9.357452392578125,-69.67433166503906,,,,,,,,,,
0,2018-10-30 16:36:11.9010,00:08,60,0,2018-10-30 16:36:16.6620,1540931776.662095,-0.08629307722129252,-0.07991294219778969,-0.9060268439209144,0.0453948974609375,-0.1311492919921875,-1.013671875,32.97309875488281,-9.152511596679688,-69.58085632324219,,,,,,,,,,
0,2018-10-30 16:36:11.9010,00:08,60,0,2018-10-30 16:36:16.6790,1540931776.67892,-0.5138854281544528,0.18606068429394995,-0.9355799425375237,0.0345916748046875,-0.13555908203125,-0.9708404541015625,32.97309875488281,-9.152511596679688,-69.58085632324219,,,,,,,,,,
0,2018-10-30 16:36:11.9010,00:08,60,0,2018-10-30 16:36:16.6950,1540931776.695238,-0.4663629163986429,0.001255414137863353,-0.8169536928376882,0.045196533203125,-0.1243133544921875,-1.0040740966796875,33.36711120605469,-8.686904907226562,-69.69818115234375,,,,,,,,,,
0,2018-10-30 16:36:11.9010,00:08,60,0,2018-10-30 16:36:16.7120,1540931776.712024,-0.4663629163986429,0.001255414137863353,-0.8169536928376882,0.0491485595703125,-0.1343231201171875,-1.078125,33.60014343261719,-8.34600830078125,-70.29728698730469,,,,,,,,,,
0,2018-10-30 16:36:11.9010,00:08,60,0,2018-10-30 16:36:16.7290,1540931776.728632,0.06183993209218495,-0.09503809929278571,-0.7251055278985994,-0.0032501220703125,-0.115692138671875,-1.0984649658203125,33.76898193359375,-8.61163330078125,-69.98576354980469,,,,,,,,,,
0,2018-10-30 16:36:11.9010,00:08,60,0,2018-10-30 16:36:16.7450,1540931776.7453542,0.09005905331877356,-0.0066983827737673,-0.704656978100644,-0.0372314453125,-0.1278076171875,-1.0286407470703125,33.75347900390625,-8.531265258789062,-70.13975524902344,,,,,,,,,,
0,2018-10-30 16:36:11.9010,00:08,60,0,2018-10-30 16:36:16.7620,1540931776.761887,0.09005905331877356,-0.0066983827737673,-0.704656978100644,-0.038238525390625,-0.13836669921875,-0.9445648193359375,34.089111328125,-8.753494262695312,-70.36392211914062,,,,,,,,,,
0,2018-10-30 16:36:11.9010,00:08,60,0,2018-10-30 16:36:16.7800,1540931776.779694,-0.18765485252247138,-0.013289706471713415,-0.5536067421290937,-0.003662109375,-0.1407928466796875,-0.9055938720703125,34.19599914550781,-8.697677612304688,-70.66825866699219,,,,,,,,,,
0,2018-10-30 16:36:11.9010,00:08,60,0,2018-10-30 16:36:16.7950,1540931776.795209,-0.18765485252247138,-0.013289706471713415,-0.5536067421290937,0.0108489990234375,-0.1513519287109375,-0.934814453125,34.19599914550781,-8.697677612304688,-70.66825866699219,,,,,,,,,,
0,2018-10-30 16:36:11.9010,00:08,60,0,2018-10-30 16:36:16.8120,1540931776.812011,-0.12270221774820181,-0.21827960716172856,-0.2979392827398517,0.03277587890625,-0.1621551513671875,-0.988189697265625,34.088958740234375,-8.44427490234375,-70.97689819335938,,,,,,,,,,
0,2018-10-30 16:36:11.9010,00:08,60,0,2018-10-30 16:36:16.8290,1540931776.828598,-0.004189951343021666,-0.25987365601491313,-0.18879122335960818,0.0356292724609375,-0.180206298828125,-0.9985198974609375,34.263519287109375,-8.40008544921875,-70.57545471191406,,,,,,,,,,
0,2018-10-30 16:36:11.9010,00:08,60,0,2018-10-30 16:36:16.8450,1540931776.8453689,-0.004189951343021666,-0.25987365601491313,-0.18879122335960818,0.01904296875,-0.194091796875,-0.9885711669921875,34.241668701171875,-8.629592895507812,-70.89744567871094,,,,,,,,,,
0,2018-10-30 16:36:11.9010,00:08,60,0,2018-10-30 16:36:16.8620,1540931776.861934,0.11406292317198477,-0.2373246710652122,-0.1609494720594838,-0.0040283203125,-0.2029266357421875,-0.9638671875,33.906707763671875,-8.407318115234375,-70.59513854980469,,,,,,,,,,
0,2018-10-30 16:36:11.9010,00:08,60,0,2018-10-30 16:36:16.8790,1540931776.878684,0.09821764731823131,-0.1290373453492823,-0.15438691050131054,-0.0014190673828125,-0.211944580078125,-0.937835693359375,33.81388854980469,-8.234375,-70.90597534179688,,,,,,,,,,
0,2018-10-30 16:36:11.9010,00:08,60,0,2018-10-30 16:36:16.8950,1540931776.895187,0.09821764731823131,-0.1290373453492823,-0.15438691050131054,0.020111083984375,-0.2179412841796875,-0.91448974609375,33.81388854980469,-8.234375,-70.90597534179688,,,,,,,,,,
0,2018-10-30 16:36:11.9010,00:08,60,0,2018-10-30 16:36:16.9120,1540931776.9119802,0.024356472381537687,0.12090218716741725,0.0012141351409671248,0.0423431396484375,-0.2189483642578125,-0.892578125,33.84423828125,-8.395172119140625,-70.67613220214844,,,,,,,,,,
0,2018-10-30 16:36:11.9010,00:08,60,0,2018-10-30 16:36:16.9290,1540931776.929008,0.03461044152666978,-0.0017222662769542433,0.07709158933895974,0.0551605224609375,-0.227996826171875,-0.888580322265625,34.00982666015625,-8.661117553710938,-70.75508117675781,,,,,,,,,,
0,2018-10-30 16:36:11.9010,00:08,60,0,2018-10-30 16:36:16.9450,1540931776.945401,0.12212298021110958,-0.22000000922591975,0.085368161374708,0.0406646728515625,-0.2404632568359375,-0.9171600341796875,34.05876159667969,-8.592697143554688,-70.59378051757812,,,,,,,,,,
0,2018-10-30 16:36:11.9010,00:08,60,0,2018-10-30 16:36:16.9640,1540931776.964055,0.22682249530648474,-0.3041732102195092,0.056325857055175885,0.0163116455078125,-0.2517242431640625,-0.955108642578125,33.74519348144531,-8.841354370117188,-70.54202270507812,,,,,,,,,,
0,2018-10-30 16:36:11.9010,00:08,60,0,2018-10-30 16:36:16.9790,1540931776.978911,0.20044574892201295,-0.2053307853095453,0.015761386279415954,-0.0153350830078125,-0.2917633056640625,-0.8884735107421875,33.57191467285156,-8.885406494140625,-70.78726196289062,,,,,,,,,,
0,2018-10-30 16:36:11.9010,00:08,60,0,2018-10-30 16:36:16.9960,1540931776.995597,0.010138387953822652,-0.04228007914998898,-5.459480234662438e-05,-0.0153350830078125,-0.2917633056640625,-0.8884735107421875,33.57191467285156,-8.885406494140625,-70.78726196289062,,,,,,,,,,
0,2018-10-30 16:36:11.9010,00:08,60,0,2018-10-30 16:36:17.0130,1540931777.0133982,-0.2209116092670539,0.060420200915063706,0.026899258590345344,-0.0033416748046875,-0.3056182861328125,-0.8590087890625,33.4971923828125,-8.792572021484375,-70.63175964355469,,,,,,,,,,
0,2018-10-30 16:36:11.9010,00:08,60,0,2018-10-30 16:36:17.0330,1540931777.032546,-0.39947522877632174,0.13881700550427128,0.05488135847991691,0.0002288818359375,-0.298370361328125,-0.95965576171875,33.36567687988281,-8.377792358398438,-70.46734619140625,,,,,,,,,,
0,2018-10-30 16:36:11.9010,00:08,60,0,2018-10-30 16:36:17.0340,1540931777.033787,-0.39947522877632174,0.13881700550427128,0.05488135847991691,0.0002288818359375,-0.298370361328125,-0.95965576171875,33.36567687988281,-8.377792358398438,-70.46734619140625,,,,,,,,,,
0,2018-10-30 16:36:11.9010,00:08,60,0,2018-10-30 16:36:17.0610,1540931777.061194,-0.4080306337782013,0.14399871803723846,0.13199185626261623,-0.00677490234375,-0.2899017333984375,-1.0528411865234375,33.36878967285156,-8.068206787109375,-70.68983459472656,,,,,,,,,,
0,2018-10-30 16:36:11.9010,00:08,60,0,2018-10-30 16:36:17.0780,1540931777.07792,-0.04285319141657403,-0.1281268105725842,0.22687495957995932,0.014312744140625,-0.216461181640625,-1.291351318359375,33.55039978027344,-8.105239868164062,-71.14968872070312,,,,,,,,,,
0,2018-10-30 16:36:11.9010,00:08,60,0,2018-10-30 16:36:17.0940,1540931777.09408,0.31275284998730846,-0.4077488713348709,0.32603456697575167,0.014312744140625,-0.216461181640625,-1.291351318359375,33.55039978027344,-8.105239868164062,-71.14968872070312,,,,,,,,,,
0,2018-10-30 16:36:11.9010,00:08,60,0,2018-10-30 16:36:17.1110,1540931777.111432,0.3722729024539254,-0.4508113872131252,0.4030691646673837,-0.0212554931640625,-0.18572998046875,-1.172821044921875,32.89204406738281,-7.7413787841796875,-70.85971069335938,,,,,,,,,,
0,2018-10-30 16:36:11.9010,00:08,60,0,2018-10-30 16:36:17.1270,1540931777.127217,0.18851345565791292,-0.3445898755547697,0.5178266402516611,-0.0528564453125,-0.1844329833984375,-1.138336181640625,32.605560302734375,-8.151153564453125,-70.96861267089844,,,,,,,,,,
0,2018-10-30 16:36:11.9010,00:08,60,0,2018-10-30 16:36:17.1440,1540931777.143873,0.06355474151808697,-0.15562741093706944,0.6273177147803068,-0.0528564453125,-0.1844329833984375,-1.138336181640625,32.48188781738281,-8.126724243164062,-70.97444152832031,,,,,,,,,,
0,2018-10-30 16:36:11.9010,00:08,60,0,2018-10-30 16:36:17.1610,1540931777.160685,0.06608074981202713,0.009624664179546367,0.6799931769293112,-0.0921478271484375,-0.1795806884765625,-1.21636962890625,32.156707763671875,-8.294601440429688,-70.60807800292969,,,,,,,,,,
0,2018-10-30 16:36:11.9010,00:08,60,0,2018-10-30 16:36:17.1770,1540931777.177275,0.11472391975454244,0.13780074323229705,0.6972733639783992,-0.0921478271484375,-0.1795806884765625,-1.21636962890625,31.924850463867188,-8.326126098632812,-70.46572875976562,,,,,,,,,,
0,2018-10-30 16:36:11.9010,00:08,60,0,2018-10-30 16:36:17.1950,1540931777.195136,0.09174882903042884,0.16392848405484645,0.7101614657577288,-0.087127685546875,-0.182769775390625,-1.22161865234375,31.8475341796875,-8.233551025390625,-70.62261962890625,,,,,,,,,,
0,2018-10-30 16:36:11.9010,00:08,60,0,2018-10-30 16:36:17.2110,1540931777.210781,-0.005494101328833469,0.01477947878550374,0.6446783292943153,-0.1146087646484375,-0.15997314453125,-1.217437744140625,31.8475341796875,-8.233551025390625,-70.62261962890625,,,,,,,,,,
0,2018-10-30 16:36:11.9010,00:08,60,0,2018-10-30 16:36:17.2280,1540931777.228122,-0.06269454048599138,-0.27487470980311146,0.45693399455921735,-0.140869140625,-0.109130859375,-1.25213623046875,31.492507934570312,-7.9313507080078125,-71.02098083496094,,,,,,,,,,
0,2018-10-30 16:36:11.9010,00:08,60,0,2018-10-30 16:36:17.2460,1540931777.245716,-0.02504516583943218,-0.46901755537323386,0.22966275660905425,-0.153289794921875,-0.034332275390625,-1.25408935546875,31.1092529296875,-7.7773895263671875,-70.80191040039062,,,,,,,,,,
0,2018-10-30 16:36:11.9010,00:08,60,0,2018-10-30 16:36:17.2620,1540931777.2618032,-0.035962262095994,-0.43580474078663767,0.06479364405719183,-0.1374359130859375,0.0159149169921875,-1.2301788330078125,31.102249145507812,-8.08734130859375,-71.04801940917969,,,,,,,,,,
0,2018-10-30 16:36:11.9010,00:08,60,0,2018-10-30 16:36:17.2780,1540931777.278267,-0.02961701448277121,-0.10594907027884035,0.05877383472917672,-0.1054534912109375,0.048309326171875,-1.1970062255859375,31.289047241210938,-8.12384033203125,-70.88308715820312,,,,,,,,,,
0,2018-10-30 16:36:11.9010,00:08,60,0,2018-10-30 16:36:17.2950,1540931777.2954822,0.178231523321335,0.37821894221974534,0.1996039237014389,-0.0673828125,0.0758819580078125,-1.1364288330078125,31.426925659179688,-8.228759765625,-70.87948608398438,,,,,,,,,,
0,2018-10-30 16:36:11.9010,00:08,60,0,2018-10-30 16:36:17.3120,1540931777.3122349,0.4402058808041026,0.6897073233214842,0.38625503080905943,-0.04180908203125,0.070709228515625,-1.02593994140625,31.426925659179688,-8.228759765625,-70.87948608398438,,,,,,,,,,
0,2018-10-30 16:36:11.9010,00:08,60,0,2018-10-30 16:36:17.3300,1540931777.3299851,0.5421381052107764,0.4281596042453472,0.36127804189353324,-0.03607177734375,0.0341644287109375,-0.90655517578125,31.63232421875,-8.03607177734375,-70.78309631347656,,,,,,,,,,
0,2018-10-30 16:36:11.9010,00:08,60,0,2018-10-30 16:36:17.3460,1540931777.346468,0.5421381052107764,0.4281596042453472,0.36127804189353324,-0.0234375,-0.0039825439453125,-0.8361663818359375,31.80706787109375,-8.692276000976562,-70.87606811523438,,,,,,,,,,
0,2018-10-30 16:36:11.9010,00:08,60,0,2018-10-30 16:36:17.3630,1540931777.3626652,0.4515355007135177,0.07907617698328678,0.23879100756140986,0.0061798095703125,-0.0511016845703125,-0.8177642822265625,32.0487060546875,-9.050949096679688,-70.95433044433594,,,,,,,,,,
0,2018-10-30 16:36:11.9010,00:08,60,0,2018-10-30 16:36:17.3790,1540931777.379294,0.23602158634383646,-0.3366712323695281,0.046645799124955874,0.0127410888671875,-0.0500946044921875,-0.8258819580078125,31.655349731445312,-9.516510009765625,-70.75889587402344,,,,,,,,,,
0,2018-10-30 16:36:11.9010,00:08,60,0,2018-10-30 16:36:17.3960,1540931777.3960671,0.23602158634383646,-0.3366712323695281,0.046645799124955874,0.00689697265625,-0.0461578369140625,-0.851715087890625,31.594161987304688,-9.504226684570312,-70.6837158203125,,,,,,,,,,
0,2018-10-30 16:36:11.9010,00:08,60,0,2018-10-30 16:36:17.4130,1540931777.4130669,0.17881076085842723,-0.2592550036936877,0.028550418466194473,-0.0099639892578125,-0.045013427734375,-0.8623046875,31.23797607421875,-9.511398315429688,-70.62528991699219,,,,,,,,,,
0,2018-10-30 16:36:11.9010,00:08,60,0,2018-10-30 16:36:17.4300,1540931777.429724,0.0317813655006786,0.012721387895090506,-0.01177143833425924,-0.0059051513671875,-0.0552978515625,-0.8599395751953125,31.23797607421875,-9.511398315429688,-70.62528991699219,,,,,,,,,,
0,2018-10-30 16:36:11.9010,00:08,60,0,2018-10-30 16:36:17.4460,1540931777.446212,0.0317813655006786,0.012721387895090506,-0.01177143833425924,0.0034942626953125,-0.0692138671875,-0.838714599609375,31.07366943359375,-9.24530029296875,-70.39015197753906,,,,,,,,,,
0,2018-10-30 16:36:11.9010,00:08,60,0,2018-10-30 16:36:17.4640,1540931777.464294,-0.15634406758640979,0.05812562131985144,-0.09519735632597245,-0.010467529296875,-0.0951995849609375,-0.8253021240234375,31.456924438476562,-9.399246215820312,-70.60919189453125,,,,,,,,,,
0,2018-10-30 16:36:11.9010,00:08,60,0,2018-10-30 16:36:17.4670,1540931777.46664,-0.15634406758640979,0.05812562131985144,-0.09519735632597245,-0.010467529296875,-0.0951995849609375,-0.8253021240234375,31.456924438476562,-9.399246215820312,-70.60919189453125,,,,,,,,,,
0,2018-10-30 16:36:11.9010,00:08,60,0,2018-10-30 16:36:17.4960,1540931777.4960818,-0.14914181473439947,0.027972778825756286,-0.14556678728707712,0.01220703125,-0.1124420166015625,-0.8891143798828125,31.704925537109375,-9.448028564453125,-70.51947021484375,,,,,,,,,,
0,2018-10-30 16:36:11.9010,00:08,60,0,2018-10-30 16:36:17.5130,1540931777.51295,0.01964587304540553,-0.03702326547428157,0.014941665295889566,0.047607421875,-0.1054534912109375,-0.8899078369140625,31.599868774414062,-9.194412231445312,-70.59379577636719,,,,,,,,,,
0,2018-10-30 16:36:11.9010,00:08,60,0,2018-10-30 16:36:17.5290,1540931777.52929,0.01964587304540553,-0.03702326547428157,0.014941665295889566,0.0769195556640625,-0.110687255859375,-0.895294189453125,31.599868774414062,-9.194412231445312,-70.59379577636719,,,,,,,,,,
0,2018-10-30 16:36:11.9010,00:08,60,0,2018-10-30 16:36:17.5460,1540931777.546071,0.08178328023135234,-0.12786022814746728,0.13153858624508472,0.0686798095703125,-0.1251983642578125,-0.89788818359375,31.53802490234375,-9.18218994140625,-70.59671020507812,,,,,,,,,,
0,2018-10-30 16:36:11.9010,00:08,60,0,2018-10-30 16:36:17.5630,1540931777.562776,0.197590840233448,-0.23002414756897802,0.2470377521929492,0.046173095703125,-0.14202880859375,-0.9034881591796875,31.181854248046875,-9.189361572265625,-70.53829956054688,,,,,,,,,,
0,2018-10-30 16:36:11.9010,00:08,60,0,2018-10-30 16:36:17.5810,1540931777.5805511,0.23669989347347964,-0.2206564784346243,0.24489816857317956,0.034515380859375,-0.15545654296875,-0.9306793212890625,31.08721923828125,-9.325851440429688,-70.470458984375,,,,,,,,,,
0,2018-10-30 16:36:11.9010,00:08,60,0,2018-10-30 16:36:17.5840,1540931777.583704,0.23669989347347964,-0.2206564784346243,0.24489816857317956,0.034515380859375,-0.15545654296875,-0.9306793212890625,31.08721923828125,-9.325851440429688,-70.470458984375,,,,,,,,,,
0,2018-10-30 16:36:11.9010,00:08,60,0,2018-10-30 16:36:17.6130,1540931777.613025,0.12300182337083573,-0.06961130246914518,0.34256028048802034,0.04913330078125,-0.1810302734375,-0.944427490234375,30.75439453125,-9.80377197265625,-70.42832946777344,,,,,,,,,,
0,2018-10-30 16:36:11.9010,00:08,60,0,2018-10-30 16:36:17.6300,1540931777.629508,0.12300182337083573,-0.06961130246914518,0.34256028048802034,0.0191802978515625,-0.19573974609375,-0.954437255859375,30.542449951171875,-9.60595703125,-70.19830322265625,,,,,,,,,,
0,2018-10-30 16:36:11.9010,00:08,60,0,2018-10-30 16:36:17.6460,1540931777.6463618,0.21834006091847336,-0.1587813926160503,0.2331994345366795,-0.0248870849609375,-0.2075042724609375,-1.017059326171875,30.542449951171875,-9.60595703125,-70.19830322265625,,,,,,,,,,
0,2018-10-30 16:36:11.9010,00:08,60,0,2018-10-30 16:36:17.6630,1540931777.662997,0.3424612108954694,-0.22640278111868825,0.07566946131685742,-0.0437164306640625,-0.2088165283203125,-1.0815582275390625,30.371780395507812,-9.649749755859375,-70.13116455078125,,,,,,,,,,
0,2018-10-30 16:36:11.9010,00:08,60,0,2018-10-30 16:36:17.6800,1540931777.679625,0.3424612108954694,-0.22640278111868825,0.07566946131685742,-0.050140380859375,-0.2037353515625,-1.0911712646484375,30.217437744140625,-10.4742431640625,-70.32637023925781,,,,,,,,,,
0,2018-10-30 16:36:11.9010,00:08,60,0,2018-10-30 16:36:17.6960,1540931777.6964579,0.06835269253797373,-0.04562527579523751,-0.11465494388230937,-0.051513671875,-0.210784912109375,-1.0371246337890625,30.174209594726562,-10.232818603515625,-70.39779663085938,,,,,,,,,,
0,2018-10-30 16:36:11.9010,00:08,60,0,2018-10-30 16:36:17.7130,1540931777.7128072,-0.12344390811178887,-0.052120193061722754,-0.193860550494574,-0.0631103515625,-0.208984375,-1.0359039306640625,30.34112548828125,-10.498672485351562,-70.320556640625,,,,,,,,,,
0,2018-10-30 16:36:11.9010,00:08,60,0,2018-10-30 16:36:17.7300,1540931777.7301369,-0.1289329494345512,-0.09285164403783065,-0.27315324247448425,-0.0810394287109375,-0.202728271484375,-1.12109375,30.0369873046875,-10.127853393554688,-70.32328796386719,,,,,,,,,,
0,2018-10-30 16:36:11.9010,00:08,60,0,2018-10-30 16:36:17.7470,1540931777.746603,0.01804131848863279,-0.05098941486287511,-0.2752787113404765,-0.0983428955078125,-0.1737823486328125,-1.215362548828125,30.0369873046875,-10.127853393554688,-70.32328796386719,,,,,,,,,,
0,2018-10-30 16:36:11.9010,00:08,60,0,2018-10-30 16:36:17.7630,1540931777.76306,0.15920882997100802,0.05138729112973295,-0.24948572986695006,-0.0961151123046875,-0.1474456787109375,-1.204376220703125,30.23150634765625,-10.245468139648438,-70.94154357910156,,,,,,,,,,
0,2018-10-30 16:36:11.9010,00:08,60,0,2018-10-30 16:36:17.7790,1540931777.779381,0.10979520752513279,0.0797520872679489,-0.19161230990232914,-0.0961151123046875,-0.1474456787109375,-1.204376220703125,30.4615478515625,-10.523406982421875,-70.7052001953125,,,,,,,,,,
0,2018-10-30 16:36:11.9010,00:08,60,0,2018-10-30 16:36:17.7960,1540931777.795885,-0.034601653095072515,-0.021649102817363135,-0.18313573446871592,-0.091827392578125,-0.1642303466796875,-1.139678955078125,30.446701049804688,-10.442977905273438,-70.78108215332031,,,,,,,,,,
0,2018-10-30 16:36:11.9010,00:08,60,0,2018-10-30 16:36:17.8130,1540931777.812649,-0.1392313933698876,-0.18881039811945677,-0.3246704958654131,-0.139007568359375,-0.15875244140625,-1.1787109375,30.564651489257812,-10.777206420898438,-70.86517333984375,,,,,,,,,,
0,2018-10-30 16:36:11.9010,00:08,60,0,2018-10-30 16:36:17.8300,1540931777.829778,-0.1917023247471738,-0.4340097702119243,-0.5509121557381516,-0.139007568359375,-0.15875244140625,-1.1787109375,30.382904052734375,-10.43096923828125,-71.01828002929688,,,,,,,,,,
0,2018-10-30 16:36:11.9010,00:08,60,0,2018-10-30 16:36:17.8530,1540931777.8528051,0.019424031726601933,-0.40900029073109917,-0.5498612723720062,-0.1367645263671875,-0.054168701171875,-1.2410125732421875,30.261825561523438,-10.406280517578125,-70.71170043945312,,,,,,,,,,
0,2018-10-30 16:36:11.9010,00:08,60,0,2018-10-30 16:36:17.8780,1540931777.877835,0.1694526791039978,-0.01940752012784344,-0.4219842663096715,-0.1205596923828125,-0.017303466796875,-1.2062530517578125,30.156265258789062,-10.46197509765625,-70.25119018554688,,,,,,,,,,
0,2018-10-30 16:36:11.9010,00:08,60,0,2018-10-30 16:36:17.8940,1540931777.8943682,0.18528463915230087,0.3294876216451484,-0.3433847951615089,-0.15032958984375,-0.0244140625,-0.981964111328125,30.495132446289062,-10.683868408203125,-70.08488464355469,,,,,,,,,,
0,2018-10-30 16:36:11.9010,00:08,60,0,2018-10-30 16:36:17.9110,1540931777.911345,0.10553148661991592,0.3670706835805646,-0.3540278521419015,-0.15032958984375,-0.0244140625,-0.981964111328125,31.204879760742188,-10.6697998046875,-70.51411437988281,,,,,,,,,,
0,2018-10-30 16:36:11.9010,00:08,60,0,2018-10-30 16:36:17.9280,1540931777.927558,0.047772848898277404,0.15803703909137315,-0.4153109172501509,-0.1353912353515625,-0.043304443359375,-0.93316650390625,31.427764892578125,-10.94842529296875,-71.1368408203125,,,,,,,,,,
0,2018-10-30 16:36:11.9010,00:08,60,0,2018-10-30 16:36:17.9440,1540931777.943986,0.03672951880604583,-0.13460468360809294,-0.5077633534405787,-0.118499755859375,-0.0452728271484375,-0.9471282958984375,31.427764892578125,-10.94842529296875,-71.1368408203125,,,,,,,,,,
0,2018-10-30 16:36:11.9010,00:08,60,0,2018-10-30 16:36:17.9610,1540931777.960991,0.05546698760362533,-0.2721060875338651,-0.5186460949190785,-0.118499755859375,-0.0452728271484375,-0.9471282958984375,31.369171142578125,-10.935897827148438,-70.74925231933594,,,,,,,,,,
0,2018-10-30 16:36:11.9010,00:08,60,0,2018-10-30 16:36:17.9770,1540931777.97736,0.08212443116699149,-0.22505389002656312,-0.4479175963726451,-0.1186065673828125,-0.035186767578125,-0.9359588623046875,31.445068359375,-10.7193603515625,-71.36154174804688,,,,,,,,,,
0,2018-10-30 16:36:11.9010,00:08,60,0,2018-10-30 16:36:17.9940,1540931777.9940572,0.1228497568725922,-0.03315821978424957,-0.3877224325696931,-0.1361083984375,-0.0724639892578125,-0.897216796875,31.78082275390625,-11.250823974609375,-70.97276306152344,,,,,,,,,,
0,2018-10-30 16:36:11.9010,00:08,60,0,2018-10-30 16:36:18.0110,1540931778.0110059,0.1583848479297375,0.1557437910767059,-0.37786021442091167,-0.1361083984375,-0.0724639892578125,-0.897216796875,31.992782592773438,-11.448623657226562,-71.20277404785156,,,,,,,,,,
0,2018-10-30 16:36:11.9010,00:08,60,0,2018-10-30 16:36:18.0280,1540931778.0276852,0.15694887146996678,0.2228687663521531,-0.3906274086867515,-0.103790283203125,-0.123870849609375,-0.818267822265625,32.562835693359375,-11.639083862304688,-71.25692749023438,,,,,,,,,,
0,2018-10-30 16:36:11.9010,00:08,60,0,2018-10-30 16:36:18.0440,1540931778.044112,0.1351580884826114,0.152721902187793,-0.37785835020814856,-0.0745849609375,-0.1404266357421875,-0.7896881103515625,32.562835693359375,-11.639083862304688,-71.25692749023438,,,,,,,,,,
0,2018-10-30 16:36:11.9010,00:08,60,0,2018-10-30 16:36:18.0610,1540931778.060745,0.12598403115950646,-0.023672306297496334,-0.3330975365027508,-0.0745849609375,-0.1404266357421875,-0.7896881103515625,32.50425720214844,-11.626556396484375,-70.86933898925781,,,,,,,,,,
0,2018-10-30 16:36:11.9010,00:08,60,0,2018-10-30 16:36:18.0780,1540931778.077533,0.17885896407415766,-0.21582603684943857,-0.2830167922038107,-0.07623291015625,-0.1478271484375,-0.79949951171875,32.68147277832031,-11.973251342773438,-71.26290893554688,,,,,,,,,,
0,2018-10-30 16:36:11.9010,00:08,60,0,2018-10-30 16:36:18.0950,1540931778.094507,0.24300119892871613,-0.3430114199766798,-0.27783481335473453,-0.0944061279296875,-0.165863037109375,-0.7987213134765625,32.62615966796875,-12.3515625,-71.59223937988281,,,,,,,,,,
0,2018-10-30 16:36:11.9010,00:08,60,0,2018-10-30 16:36:18.1110,1540931778.111432,0.2856077816283488,-0.42532280505219483,-0.3529069276390872,-0.0944061279296875,-0.165863037109375,-0.7987213134765625,32.84136962890625,-12.549057006835938,-71.4317626953125,,,,,,,,,,
0,2018-10-30 16:36:11.9010,00:08,60,0,2018-10-30 16:36:18.1280,1540931778.128499,0.31264738880814136,-0.2630239092683679,-0.4319570056436912,-0.1505126953125,-0.1720733642578125,-0.80084228515625,32.73382568359375,-12.60491943359375,-71.20553588867188,,,,,,,,,,
0,2018-10-30 16:36:11.9010,00:08,60,0,2018-10-30 16:36:18.1460,1540931778.145669,0.20377869502624713,-0.0715985532745623,-0.43597811257360186,-0.1390380859375,-0.1943206787109375,-0.7771453857421875,32.715240478515625,-12.834136962890625,-71.13700866699219,,,,,,,,,,
0,2018-10-30 16:36:11.9010,00:08,60,0,2018-10-30 16:36:18.1620,1540931778.162271,0.0069527146578698676,0.07735098122913346,-0.4261092365220952,-0.13177490234375,-0.215301513671875,-0.7723236083984375,32.715240478515625,-12.834136962890625,-71.13700866699219,,,,,,,,,,
0,2018-10-30 16:36:11.9010,00:08,60,0,2018-10-30 16:36:18.1790,1540931778.1788049,-0.15678135863740078,0.15466521083522383,-0.4334704800911832,-0.1246490478515625,-0.212371826171875,-0.80047607421875,32.91804504394531,-12.641693115234375,-71.35299682617188,,,,,,,,,,
0,2018-10-30 16:36:11.9010,00:08,60,0,2018-10-30 16:36:18.1960,1540931778.195637,-0.2422951949237361,0.14359258597100139,-0.4345344129466699,-0.1183929443359375,-0.2128448486328125,-0.8561553955078125,33.41078186035156,-12.73956298828125,-71.56401062011719,,,,,,,,,,
0,2018-10-30 16:36:11.9010,00:08,60,0,2018-10-30 16:36:18.2130,1540931778.212605,-0.2700093808076457,0.1156810598503169,-0.4206409678558355,-0.121917724609375,-0.2205963134765625,-0.9104766845703125,33.64068603515625,-12.708236694335938,-71.94064331054688,,,,,,,,,,
0,2018-10-30 16:36:11.9010,00:08,60,0,2018-10-30 16:36:18.2300,1540931778.2295809,-0.26798457943085846,0.12507908902109754,-0.3413860927634044,-0.12005615234375,-0.2492828369140625,-0.9582672119140625,33.860931396484375,-12.595977783203125,-71.76834106445312,,,,,,,,,,
0,2018-10-30 16:36:11.9010,00:08,60,0,2018-10-30 16:36:18.2470,1540931778.246764,-0.1777843785743107,0.20923204999040237,-0.23421782733752577,-0.1304168701171875,-0.2794036865234375,-1.0004119873046875,34.23063659667969,-12.669357299804688,-71.90708923339844,,,,,,,,,,
0,2018-10-30 16:36:11.9010,00:08,60,0,2018-10-30 16:36:18.2630,1540931778.2632608,-0.1777843785743107,0.20923204999040237,-0.23421782733752577,-0.1168670654296875,-0.2950439453125,-1.026397705078125,34.26344299316406,-12.520660400390625,-71.97782897949219,,,,,,,,,,
0,2018-10-30 16:36:11.9010,00:08,60,0,2018-10-30 16:36:18.2800,1540931778.2800179,-0.18420659154303679,0.10199587395672673,-0.17973461144057573,-0.0906982421875,-0.2968597412109375,-1.0595703125,34.26344299316406,-12.520660400390625,-71.97782897949219,,,,,,,,,,
0,2018-10-30 16:36:11.9010,00:08,60,0,2018-10-30 16:36:18.2970,1540931778.296911,-0.23823707005467337,-0.24377617880592917,-0.13624279399460068,-0.0729827880859375,-0.2725830078125,-1.12127685546875,34.246002197265625,-12.44049072265625,-72.3660888671875,,,,,,,,,,
0,2018-10-30 16:36:11.9010,00:08,60,0,2018-10-30 16:36:18.3130,1540931778.3129392,-0.23823707005467337,-0.24377617880592917,-0.13624279399460068,-0.0697174072265625,-0.2333221435546875,-1.2168731689453125,34.31109619140625,-12.452377319335938,-71.97268676757812,,,,,,,,,,
0,2018-10-30 16:36:11.9010,00:08,60,0,2018-10-30 16:36:18.3300,1540931778.3299642,-0.19861855409810958,-0.2810982509545176,-0.09453476184676074,-0.03558349609375,-0.19647216796875,-1.3086090087890625,34.30589294433594,-12.452896118164062,-72.59747314453125,,,,,,,,,,
0,2018-10-30 16:36:11.9010,00:08,60,0,2018-10-30 16:36:18.3470,1540931778.346734,0.28653056694606127,0.15176343051147348,0.30959727041167356,0.0015716552734375,-0.1562042236328125,-1.361968994140625,34.41485595703125,-12.706130981445312,-72.05453491210938,,,,,,,,,,
0,2018-10-30 16:36:11.9010,00:08,60,0,2018-10-30 16:36:18.3630,1540931778.363261,0.28653056694606127,0.15176343051147348,0.30959727041167356,0.0164947509765625,-0.1342926025390625,-1.3018798828125,34.083831787109375,-12.874588012695312,-72.39106750488281,,,,,,,,,,
0,2018-10-30 16:36:11.9010,00:08,60,0,2018-10-30 16:36:18.3800,1540931778.379761,0.24877013848204577,0.02114177062970304,0.6071448021551746,0.0284576416015625,-0.1552276611328125,-1.2143707275390625,34.083831787109375,-12.874588012695312,-72.39106750488281,,,,,,,,,,
0,2018-10-30 16:36:11.9010,00:08,60,0,2018-10-30 16:36:18.3970,1540931778.396558,-0.027976773567391405,-0.4906581360751088,0.5091316856086614,0.0161590576171875,-0.1847686767578125,-1.152099609375,33.81983947753906,-13.054763793945312,-72.09989929199219,,,,,,,,,,
0,2018-10-30 16:36:11.9010,00:08,60,0,2018-10-30 16:36:18.4130,1540931778.413333,-0.027976773567391405,-0.4906581360751088,0.5091316856086614,-0.032867431640625,-0.1800079345703125,-1.2130889892578125,33.331695556640625,-13.347579956054688,-72.4495849609375,,,,,,,,,,
0,2018-10-30 16:36:11.9010,00:08,60,0,2018-10-30 16:36:18.4300,1540931778.4299111,-0.15811160760189535,-1.2086876449573676,-0.030366161697410497,-0.1083221435546875,-0.092529296875,-1.34222412109375,32.637298583984375,-13.13275146484375,-72.4793701171875,,,,,,,,,,
0,2018-10-30 16:36:11.9010,00:08,60,0,2018-10-30 16:36:18.4470,1540931778.446669,0.0705431425345639,-0.8865623321457433,0.010668889642966436,-0.1468048095703125,0.0354461669921875,-1.3910064697265625,32.072601318359375,-13.642196655273438,-72.29487609863281,,,,,,,,,,
0,2018-10-30 16:36:11.9010,00:08,60,0,2018-10-30 16:36:18.4630,1540931778.463031,0.0705431425345639,-0.8865623321457433,0.010668889642966436,-0.0943756103515625,0.09942626953125,-1.3554840087890625,31.62310791015625,-13.785736083984375,-72.012451171875,,,,,,,,,,
0,2018-10-30 16:36:11.9010,00:08,60,0,2018-10-30 16:36:18.4820,1540931778.481598,0.5196780698414842,0.12024704953925776,0.5986349372079355,-0.0623779296875,0.1321868896484375,-1.2404632568359375,31.592269897460938,-13.934234619140625,-71.70742797851562,,,,,,,,,,
0,2018-10-30 16:36:11.9010,00:08,60,0,2018-10-30 16:36:18.4840,1540931778.483877,0.5196780698414842,0.12024704953925776,0.5986349372079355,-0.0623779296875,0.1321868896484375,-1.2404632568359375,31.592269897460938,-13.934234619140625,-71.70742797851562,,,,,,,,,,
0,2018-10-30 16:36:11.9010,00:08,60,0,2018-10-30 16:36:18.5130,1540931778.5130448,0.5315198156285216,0.28403678290131107,0.7241249519852322,-0.085784912109375,0.0128021240234375,-0.95440673828125,31.504165649414062,-14.461227416992188,-71.96600341796875,,,,,,,,,,
0,2018-10-30 16:36:11.9010,00:08,60,0,2018-10-30 16:36:18.5300,1540931778.529834,0.38589284090080866,0.1302440236391972,0.5836874129576477,-0.1149444580078125,-0.0568084716796875,-0.83221435546875,31.241485595703125,-14.641281127929688,-71.51864624023438,,,,,,,,,,
0,2018-10-30 16:36:11.9010,00:08,60,0,2018-10-30 16:36:18.5470,1540931778.546609,0.13754907450928455,-0.20277175381808815,0.3381090730420619,-0.15692138671875,-0.13323974609375,-0.7756805419921875,30.92724609375,-14.889999389648438,-71.54499816894531,,,,,,,,,,
0,2018-10-30 16:36:11.9010,00:08,60,0,2018-10-30 16:36:18.5640,1540931778.5638509,-0.0469994669177184,-0.4844183496410531,0.0765158139112846,-0.15692138671875,-0.13323974609375,-0.7756805419921875,30.859710693359375,-15.187606811523438,-71.63780212402344,,,,,,,,,,
0,2018-10-30 16:36:11.9010,00:08,60,0,2018-10-30 16:36:18.5800,1540931778.579739,-0.08071695053088461,-0.5127583783811314,-0.05843960801237178,-0.1535186767578125,-0.123931884765625,-0.8291168212890625,30.270401000976562,-15.226409912109375,-71.59324645996094,,,,,,,,,,
0,2018-10-30 16:36:11.9010,00:08,60,0,2018-10-30 16:36:18.5960,1540931778.596283,-0.012142416674107278,-0.2948372327021274,-0.08174626229220024,-0.1182098388671875,-0.0687713623046875,-0.888763427734375,30.270401000976562,-15.226409912109375,-71.59324645996094,,,,,,,,,,
0,2018-10-30 16:36:11.9010,00:08,60,0,2018-10-30 16:36:18.6130,1540931778.612598,0.05912324146419512,0.0006383597132919934,-0.031068437276864393,-0.1182098388671875,-0.0687713623046875,-0.888763427734375,30.209213256835938,-15.214111328125,-71.51806640625,,,,,,,,,,
0,2018-10-30 16:36:11.9010,00:08,60,0,2018-10-30 16:36:18.6290,1540931778.629377,0.04854276876941931,0.23193443301889186,0.036683712435296466,-0.0931549072265625,-0.06182861328125,-0.85260009765625,30.272994995117188,-15.226150512695312,-71.28085327148438,,,,,,,,,,
0,2018-10-30 16:36:11.9010,00:08,60,0,2018-10-30 16:36:18.6460,1540931778.645839,-0.022932213830563312,0.261716829805357,0.06350920146344662,-0.0768890380859375,-0.073516845703125,-0.788970947265625,30.357528686523438,-15.70916748046875,-71.37229919433594,,,,,,,,,,
0,2018-10-30 16:36:11.9010,00:08,60,0,2018-10-30 16:36:18.6640,1540931778.664254,-0.07644204434908941,0.1662028236257741,0.004506867512741095,-0.0780487060546875,-0.1000213623046875,-0.760772705078125,30.48248291015625,-15.73345947265625,-71.21028137207031,,,,,,,,,,
0,2018-10-30 16:36:11.9010,00:08,60,0,2018-10-30 16:36:18.6660,1540931778.666434,-0.07644204434908941,0.1662028236257741,0.004506867512741095,-0.0821990966796875,-0.118865966796875,-0.7776031494140625,30.48248291015625,-15.73345947265625,-71.21028137207031,,,,,,,,,,
0,2018-10-30 16:36:11.9010,00:08,60,0,2018-10-30 16:36:18.6970,1540931778.697223,-0.07102464205965023,-0.0542190303168142,-0.06537234896206605,-0.063934326171875,-0.12744140625,-0.8330230712890625,30.294387817382812,-15.697067260742188,-71.53140258789062,,,,,,,,,,
0,2018-10-30 16:36:11.9010,00:08,60,0,2018-10-30 16:36:18.7130,1540931778.71317,-0.03961478753103768,-0.06448205420965256,-0.008636897731235977,-0.063934326171875,-0.12744140625,-0.8330230712890625,30.295028686523438,-15.697006225585938,-71.45330810546875,,,,,,,,,,
0,2018-10-30 16:36:11.9010,00:08,60,0,2018-10-30 16:36:18.7300,1540931778.730187,-0.044465469140508,-0.023287213203870876,-0.02036439390750891,-0.11334228515625,-0.159027099609375,-0.8570404052734375,30.213943481445312,-15.914077758789062,-71.46580505371094,,,,,,,,,,
0,2018-10-30 16:36:11.9010,00:08,60,0,2018-10-30 16:36:18.7470,1540931778.746883,-0.11872159086686038,0.027402329720261312,-0.07596880062338233,-0.11529541015625,-0.176971435546875,-0.86712646484375,30.503860473632812,-16.204376220703125,-71.46084594726562,,,,,,,,,,
0,2018-10-30 16:36:11.9010,00:08,60,0,2018-10-30 16:36:18.7630,1540931778.763288,-0.20656436152647,0.08800389190555942,-0.14333718882246277,-0.11529541015625,-0.176971435546875,-0.86712646484375,30.283615112304688,-16.316665649414062,-71.63311767578125,,,,,,,,,,
0,2018-10-30 16:36:11.9010,00:08,60,0,2018-10-30 16:36:18.7800,1540931778.779947,-0.24526355427473842,0.11125621769915026,-0.18506279783349724,-0.0619354248046875,-0.19659423828125,-0.93072509765625,30.486419677734375,-16.124221801757812,-71.84910583496094,,,,,,,,,,
0,2018-10-30 16:36:11.9010,00:08,60,0,2018-10-30 16:36:18.7970,1540931778.796897,-0.24338815623510462,0.08743424174839147,-0.18295091108906442,-0.0350494384765625,-0.2101287841796875,-0.97235107421875,30.486419677734375,-16.124221801757812,-71.84910583496094,,,,,,,,,,
0,2018-10-30 16:36:11.9010,00:08,60,0,2018-10-30 16:36:18.8130,1540931778.813441,-0.22149777102298032,0.07189309889112507,-0.13585743458486624,-0.0328521728515625,-0.2095489501953125,-0.99951171875,30.301559448242188,-16.0875244140625,-71.77973937988281,,,,,,,,,,
0,2018-10-30 16:36:11.9010,00:08,60,0,2018-10-30 16:36:18.8300,1540931778.83024,-0.2094349828654664,0.1332019966619482,-0.07902903903199239,-0.040252685546875,-0.2130126953125,-1.006103515625,30.588241577148438,-16.378158569335938,-72.16526794433594,,,,,,,,,,
0,2018-10-30 16:36:11.9010,00:08,60,0,2018-10-30 16:36:18.8470,1540931778.846838,-0.2199576649645875,0.14503362243684326,-0.037248302586393264,-0.040252685546875,-0.2130126953125,-1.006103515625,30.697067260742188,-16.322158813476562,-72.23532104492188,,,,,,,,,,
0,2018-10-30 16:36:11.9010,00:08,60,0,2018-10-30 16:36:18.8670,1540931778.866836,-0.213555159387928,0.03798280241503712,-0.05986999183385334,-0.0634307861328125,-0.2129058837890625,-1.0979766845703125,30.419525146484375,-16.4217529296875,-71.86383056640625,,,,,,,,,,
0,2018-10-30 16:36:11.9010,00:08,60,0,2018-10-30 16:36:18.8870,1540931778.886519,-0.19607576788930192,-0.1317620254605424,-0.11898098275703409,-0.0712890625,-0.2121429443359375,-1.1556396484375,30.371246337890625,-16.490097045898438,-71.94705200195312,,,,,,,,,,
0,2018-10-30 16:36:11.9010,00:08,60,0,2018-10-30 16:36:18.9000,1540931778.899745,-0.10768332078069995,-0.14567544425955234,-0.097602190790314,-0.087738037109375,-0.201385498046875,-1.1863861083984375,30.135482788085938,-16.522003173828125,-72.27330017089844,,,,,,,,,,
0,2018-10-30 16:36:11.9010,00:08,60,0,2018-10-30 16:36:18.9310,1540931778.930685,0.0401703229344282,-0.10413439231206036,-0.021555359546992347,-0.1103363037109375,-0.180389404296875,-1.23699951171875,29.888809204101562,-16.473098754882812,-72.20684814453125,,,,,,,,,,
0,2018-10-30 16:36:11.9010,00:08,60,0,2018-10-30 16:36:18.9470,1540931778.94706,0.2379824718544618,-0.018765431989025336,0.06417126331044032,-0.1270751953125,-0.18963623046875,-1.2035675048828125,29.805252075195312,-16.999679565429688,-71.91876220703125,,,,,,,,,,
0,2018-10-30 16:36:11.9010,00:08,60,0,2018-10-30 16:36:18.9650,1540931778.964551,0.325374103025412,-0.031510522017817545,0.06627622583603894,-0.1533203125,-0.1945343017578125,-1.15936279296875,29.747512817382812,-17.687469482421875,-71.947509765625,,,,,,,,,,
0,2018-10-30 16:36:11.9010,00:08,60,0,2018-10-30 16:36:18.9670,1540931778.9671779,0.325374103025412,-0.031510522017817545,0.06627622583603894,-0.1533203125,-0.1945343017578125,-1.15936279296875,29.747512817382812,-17.687469482421875,-71.947509765625,,,,,,,,,,
0,2018-10-30 16:36:11.9010,00:08,60,0,2018-10-30 16:36:18.9830,1540931778.983254,0.24718955237508375,-0.06613188250495665,-0.014062289503945401,-0.1733856201171875,-0.2064971923828125,-1.1139373779296875,29.593002319335938,-17.811553955078125,-71.64830017089844,,,,,,,,,,
0,2018-10-30 16:36:11.9010,00:08,60,0,2018-10-30 16:36:19.0000,1540931778.9999208,-0.18729319524643862,-0.37949406374967526,-0.39985446291554905,-0.20428466796875,-0.1943359375,-1.1162567138671875,29.606552124023438,-17.892120361328125,-71.72860717773438,,,,,,,,,,
0,2018-10-30 16:36:11.9010,00:08,60,0,2018-10-30 16:36:19.0170,1540931779.016819,-0.18729319524643862,-0.37949406374967526,-0.39985446291554905,-0.22283935546875,-0.15081787109375,-1.185760498046875,29.499008178710938,-17.947982788085938,-71.50236511230469,,,,,,,,,,
0,2018-10-30 16:36:11.9010,00:08,60,0,2018-10-30 16:36:19.0330,1540931779.033094,-0.10055537012310287,-0.27482357711018196,-0.5464542903894679,-0.2236175537109375,-0.067901611328125,-1.252410888671875,29.499008178710938,-17.947982788085938,-71.50236511230469,,,,,,,,,,
0,2018-10-30 16:36:11.9010,00:08,60,0,2018-10-30 16:36:19.0500,1540931779.0504398,0.009774600148917827,0.034192325235527336,-0.4593598679961705,-0.1897125244140625,-0.01995849609375,-1.2515869140625,29.35986328125,-17.84320068359375,-71.66213989257812,,,,,,,,,,
0,2018-10-30 16:36:11.9010,00:08,60,0,2018-10-30 16:36:19.0660,1540931779.066383,0.009774600148917827,0.034192325235527336,-0.4593598679961705,-0.18914794921875,0.0085296630859375,-1.1851348876953125,29.644073486328125,-18.443359375,-71.74708557128906,,,,,,,,,,
0,2018-10-30 16:36:11.9010,00:08,60,0,2018-10-30 16:36:19.0840,1540931779.0836349,-0.10458100442686664,0.4522942353080813,-0.3345966298803564,-0.1808929443359375,-0.0005645751953125,-1.09942626953125,29.997802734375,-18.745681762695312,-71.50492858886719,,,,,,,,,,
0,2018-10-30 16:36:11.9010,00:08,60,0,2018-10-30 16:36:19.1000,1540931779.10039,-0.07052876146467747,0.4993011590768519,-0.27029513799261123,-0.1643829345703125,-0.0111541748046875,-1.0446014404296875,30.397186279296875,-18.979949951171875,-71.49192810058594,,,,,,,,,,
0,2018-10-30 16:36:11.9010,00:08,60,0,2018-10-30 16:36:19.1170,1540931779.116606,-0.07052876146467747,0.4993011590768519,-0.27029513799261123,-0.12506103515625,-0.0086517333984375,-1.0213470458984375,30.677337646484375,-18.88006591796875,-71.551025390625,,,,,,,,,,
0,2018-10-30 16:36:11.9010,00:08,60,0,2018-10-30 16:36:19.1340,1540931779.134224,0.1983501074602296,0.24235138762273678,0.047369113677021395,-0.0856781005859375,-0.000335693359375,-0.9992828369140625,30.53570556640625,-19.084793090820312,-71.41023254394531,,,,,,,,,,
0,2018-10-30 16:36:11.9010,00:08,60,0,2018-10-30 16:36:19.1510,1540931779.1509051,0.3144338372673665,0.0665068555864398,0.19490317806134003,-0.073211669921875,-0.00531005859375,-0.96759033203125,30.53570556640625,-19.084793090820312,-71.41023254394531,,,,,,,,,,
0,2018-10-30 16:36:11.9010,00:08,60,0,2018-10-30 16:36:19.1800,1540931779.1803021,0.356730960648332,-0.1681285554100104,0.0746670474825516,-0.132965087890625,-0.083282470703125,-0.886505126953125,30.326034545898438,-19.89642333984375,-70.82740783691406,,,,,,,,,,
0,2018-10-30 16:36:11.9010,00:08,60,0,2018-10-30 16:36:19.1970,1540931779.1971169,0.356730960648332,-0.1681285554100104,0.0746670474825516,-0.150970458984375,-0.1125640869140625,-0.8352813720703125,30.183258056640625,-20.410491943359375,-70.22982788085938,,,,,,,,,,
0,2018-10-30 16:36:11.9010,00:08,60,0,2018-10-30 16:36:19.2130,1540931779.213472,0.18365718141015344,-0.09577286543753857,-0.02265045138723293,-0.1431884765625,-0.11279296875,-0.8078155517578125,30.113784790039062,-20.708297729492188,-70.55693054199219,,,,,,,,,,
0,2018-10-30 16:36:11.9010,00:08,60,0,2018-10-30 16:36:19.2300,1540931779.230237,0.07485453402329317,-0.0028517128952568484,-0.007517571125075674,-0.1375274658203125,-0.1007080078125,-0.8030853271484375,30.113784790039062,-20.708297729492188,-70.55693054199219,,,,,,,,,,
0,2018-10-30 16:36:11.9010,00:08,60,0,2018-10-30 16:36:19.2470,1540931779.247396,0.07485453402329317,-0.0028517128952568484,-0.007517571125075674,-0.1205902099609375,-0.12396240234375,-0.8174285888671875,29.963653564453125,-20.522705078125,-70.32400512695312,,,,,,,,,,
0,2018-10-30 16:36:11.9010,00:08,60,0,2018-10-30 16:36:19.2630,1540931779.26333,-0.17903899376384702,0.015895076966137935,-0.028850556721046403,-0.1384124755859375,-0.1077880859375,-0.83251953125,30.016036987304688,-21.154373168945312,-70.26661682128906,,,,,,,,,,
0,2018-10-30 16:36:11.9010,00:08,60,0,2018-10-30 16:36:19.2800,1540931779.280319,-0.2811978531792866,0.023455258668654874,-0.05130473313594049,-0.1530914306640625,-0.1138458251953125,-0.8379058837890625,30.105606079101562,-21.327621459960938,-70.34625244140625,,,,,,,,,,
0,2018-10-30 16:36:11.9010,00:08,60,0,2018-10-30 16:36:19.2970,1540931779.296839,-0.314753682914285,0.1322938587302312,-0.14004392381847078,-0.1968841552734375,-0.102325439453125,-0.85205078125,29.905258178710938,-21.210586547851562,-70.43086242675781,,,,,,,,,,
0,2018-10-30 16:36:11.9010,00:08,60,0,2018-10-30 16:36:19.3140,1540931779.31396,-0.29052264542009004,0.22958605756965997,-0.1849059376452916,-0.2250213623046875,-0.0917816162109375,-0.8826904296875,30.01654052734375,-20.845062255859375,-70.80149841308594,,,,,,,,,,
0,2018-10-30 16:36:11.9010,00:08,60,0,2018-10-30 16:36:19.3310,1540931779.331219,-0.23540266770650203,0.2667890864175219,-0.15381832560857864,-0.1597900390625,-0.0770263671875,-0.9246673583984375,30.01654052734375,-20.845062255859375,-70.80149841308594,,,,,,,,,,
0,2018-10-30 16:36:11.9010,00:08,60,0,2018-10-30 16:36:19.3340,1540931779.333879,-0.23540266770650203,0.2667890864175219,-0.15381832560857864,-0.1597900390625,-0.0770263671875,-0.9246673583984375,30.32196044921875,-21.215744018554688,-70.64256286621094,,,,,,,,,,
0,2018-10-30 16:36:11.9010,00:08,60,0,2018-10-30 16:36:19.3640,1540931779.3637571,-0.16693439397721888,0.20141300902992973,0.07203637695777133,-0.1252899169921875,-0.078948974609375,-0.9212188720703125,30.182159423828125,-21.11102294921875,-70.88044738769531,,,,,,,,,,
0,2018-10-30 16:36:11.9010,00:08,60,0,2018-10-30 16:36:19.3800,1540931779.3803868,-0.17527115345360292,0.12643357275151185,0.17903206954501283,-0.1031646728515625,-0.09600830078125,-0.9216156005859375,30.271072387695312,-21.28436279296875,-71.03816223144531,,,,,,,,,,
0,2018-10-30 16:36:11.9010,00:08,60,0,2018-10-30 16:36:19.3970,1540931779.3968759,-0.12285455056255434,0.0076366144258022154,0.27846305305588426,-0.1031646728515625,-0.09600830078125,-0.9216156005859375,30.115249633789062,-21.408554077148438,-70.89517211914062,,,,,,,,,,
0,2018-10-30 16:36:11.9010,00:08,60,0,2018-10-30 16:36:19.4140,1540931779.413927,0.05070632083899969,-0.12845730886386306,0.35535543794530605,-0.1014556884765625,-0.1103668212890625,-0.972259521484375,29.710784912109375,-21.48406982421875,-70.91998291015625,,,,,,,,,,
0,2018-10-30 16:36:11.9010,00:08,60,0,2018-10-30 16:36:19.4300,1540931779.430245,0.2353643181868049,-0.21583109685550972,0.3937542261226135,-0.09930419921875,-0.1372222900390625,-1.01654052734375,29.710784912109375,-21.48406982421875,-70.91998291015625,,,,,,,,,,
0,2018-10-30 16:36:11.9010,00:08,60,0,2018-10-30 16:36:19.4470,1540931779.447041,0.2969773489541151,-0.1507527608777884,0.47092171555264056,-0.115997314453125,-0.1605224609375,-0.9911041259765625,29.17108154296875,-21.45440673828125,-70.63600158691406,,,,,,,,,,
0,2018-10-30 16:36:11.9010,00:08,60,0,2018-10-30 16:36:19.4630,1540931779.463455,0.2243132649274121,-0.018326010409162263,0.5278582354457716,-0.1273651123046875,-0.2169342041015625,-0.9082794189453125,28.730697631835938,-21.988204956054688,-70.36756896972656,,,,,,,,,,
0,2018-10-30 16:36:11.9010,00:08,60,0,2018-10-30 16:36:19.4810,1540931779.480639,0.10152689128876377,0.04978380183739624,0.5600976646539438,-0.1273651123046875,-0.2169342041015625,-0.9082794189453125,28.389389038085938,-22.075790405273438,-70.23329162597656,,,,,,,,,,
0,2018-10-30 16:36:11.9010,00:08,60,0,2018-10-30 16:36:19.4990,1540931779.499433,0.012782107967944312,0.027990355688950808,0.5429583588265209,-0.1294403076171875,-0.23382568359375,-0.93426513671875,28.11053466796875,-22.175521850585938,-70.01800537109375,,,,,,,,,,
0,2018-10-30 16:36:11.9010,00:08,60,0,2018-10-30 16:36:19.5010,1540931779.501353,0.012782107967944312,0.027990355688950808,0.5429583588265209,-0.1353302001953125,-0.23480224609375,-0.993988037109375,28.11053466796875,-22.175521850585938,-70.01800537109375,,,,,,,,,,
0,2018-10-30 16:36:11.9010,00:08,60,0,2018-10-30 16:36:19.5170,1540931779.5165,0.035925776789059914,0.015981896017674517,0.5150955685537849,-0.13922119140625,-0.2234344482421875,-1.0602264404296875,27.565750122070312,-22.45562744140625,-69.74581909179688,,,,,,,,,,
0,2018-10-30 16:36:11.9010,00:08,60,0,2018-10-30 16:36:19.5470,1540931779.5473619,0.2531771374539089,0.134942638750424,0.5387489664075417,-0.12933349609375,-0.2103424072265625,-1.0908660888671875,27.13226318359375,-22.370208740234375,-69.84429931640625,,,,,,,,,,
0,2018-10-30 16:36:11.9010,00:08,60,0,2018-10-30 16:36:19.5640,1540931779.563764,0.245148239399538,0.18145607876920294,0.557012925163305,-0.13720703125,-0.1724700927734375,-1.089447021484375,26.7723388671875,-22.686981201171875,-69.6414794921875,,,,,,,,,,
