SessionID,SessionDate,SessionDuration,SessionFrequency,RecordID,Timestamp,timeIntervalSince1970,GyroX,GyroY,GyroZ,AccX,AccY,AccZ,MagX,MagY,MagZ,WatchTimestamp,WatchtImeIntervalSince1970,WatchGyroX,WatchGyroY,WatchGyroZ,WatchAccX,WatchAccY,WatchAccZ0,38:06.7,0:17,60,0,38:06.8,1540931887,-0.591281417,-0.267738237,-0.328942473,0.016555786,-0.077102661,-1.050872803,42.32926941,28.99732971,-72.64726257,,,,,,,,0,38:06.7,0:17,60,0,38:06.8,1540931887,-0.099145493,0.155606905,-0.266428761,0.029464722,-0.098129272,-1.065933228,42.41101074,29.21444702,-72.55667114,,,,,,,,0,38:06.7,0:17,60,0,38:06.8,1540931887,0.336541536,0.29406465,-0.233166145,0.075881958,-0.09703064,-1.096328735,42.29388428,28.84837341,-72.88890076,,,,,,,,0,38:06.7,0:17,60,0,38:06.8,1540931887,0.589998838,0.229894452,-0.211889086,0.126052856,-0.117553711,-1.097351074,42.29388428,28.84837341,-72.88890076,,,,,,,,0,38:06.7,0:17,60,0,38:06.8,1540931887,0.63549282,0.143873549,-0.177738572,0.132949829,-0.148406982,-1.033554077,42.17933655,28.48252869,-72.90875244,,,,,,,,0,38:06.7,0:17,60,0,38:06.8,1540931887,0.4554863,0.079383239,-0.117806529,0.129318237,-0.178115845,-0.967712402,42.29664612,28.14822388,-73.07095337,,,,,,,,0,38:06.7,0:17,60,0,38:06.9,1540931887,0.182464884,-0.010142915,-0.065379007,0.124710083,-0.183151245,-0.95513916,42.30825806,28.06747437,-73.38554382,,,,,,,,0,38:06.7,0:17,60,0,38:06.9,1540931887,-0.078405327,-0.151707238,-0.01194774,0.130264282,-0.174377441,-0.975311279,42.06221008,28.11643982,-73.24098206,,,,,,,,0,38:06.7,0:17,60,0,38:06.9,1540931887,-0.223676237,-0.346084175,-0.012152537,0.130218506,-0.143295288,-1.018722534,41.76722717,28.09701538,-73.25775146,,,,,,,,0,38:06.7,0:17,60,0,38:06.9,1540931887,-0.228215861,-0.496264356,-0.042320826,0.119674683,-0.105606079,-1.031814575,41.36781311,28.33125305,-73.27076721,,,,,,,,0,38:06.7,0:17,60,0,38:06.9,1540931887,-0.179199849,-0.437344847,-0.017630126,0.091064453,-0.101501465,-1.006790161,41.36781311,28.33125305,-73.27076721,,,,,,,,0,38:06.7,0:17,60,0,38:06.9,1540931887,-0.089263034,-0.29437118,-0.013191968,0.069458008,-0.091369629,-0.991409302,41.24610901,28.35586548,-73.04231262,,,,,,,,0,38:06.7,0:17,60,0,38:07.0,1540931887,0.01350489,-0.142696432,-0.051580637,0.047592163,-0.067764282,-0.977233887,41.09208679,28.54109192,-73.27793884,,,,,,,,0,38:06.7,0:17,60,0,38:07.0,1540931887,0.079403746,0.1282107,-0.065183531,0.037979126,-0.076187134,-0.962982178,40.95420837,28.64599609,-73.28153992,,,,,,,,0,38:06.7,0:17,60,0,38:07.0,1540931887,0.079403746,0.1282107,-0.065183531,0.034225464,-0.093276978,-0.958831787,41.13842773,28.60925293,-73.42901611,,,,,,,,0,38:06.7,0:17,60,0,38:07.0,1540931887,0.009883257,0.1311226,-0.085509575,0.032104492,-0.104446411,-0.952850342,41.02584839,28.24362183,-73.21456909,,,,,,,,0,38:06.7,0:17,60,0,38:07.0,1540931887,-0.069360433,0.122015921,-0.052305016,0.032577515,-0.132232666,-0.979415894,41.02584839,28.24362183,-73.21456909,,,,,,,,0,38:06.7,0:17,60,0,38:07.1,1540931887,-0.153157063,0.077272684,-0.022355906,0.030670166,-0.125045776,-0.989486694,40.90853882,28.57792664,-73.05239868,,,,,,,,0,38:06.7,0:17,60,0,38:07.1,1540931887,-0.264591712,0.117194534,-0.000862598,0.019790649,-0.102386475,-1.007293701,41.07788086,28.62158203,-73.27571106,,,,,,,,0,38:06.7,0:17,60,0,38:07.1,1540931887,-0.264591712,0.117194534,-0.000862598,0.019790649,-0.102386475,-1.007293701,40.94703674,29.03645325,-73.03323364,,,,,,,,0,38:06.7,0:17,60,0,38:07.1,1540931887,-0.193941777,0.112279937,-0.023373766,0.008712769,-0.080123901,-1.034378052,41.07070923,29.01203918,-73.02742004,,,,,,,,0,38:06.7,0:17,60,0,38:07.1,1540931887,0.107920342,-0.008866196,-0.205642375,-0.045913696,-0.055480957,-1.004348755,40.98962402,28.79496765,-73.03991699,,,,,,,,0,38:06.7,0:17,60,0,38:07.1,1540931887,0.107920342,-0.008866196,-0.205642375,-0.045913696,-0.055480957,-1.004348755,40.98962402,28.79496765,-73.03991699,,,,,,,,0,38:06.7,0:17,60,0,38:07.1,1540931887,0.151028664,-0.035007253,-0.263511534,-0.052200317,-0.092819214,-0.941070557,40.72366333,28.61460876,-72.98301697,,,,,,,,0,38:06.7,0:17,60,0,38:07.2,1540931887,-0.028411135,0.057535997,-0.254787285,-0.075302124,-0.167831421,-0.87487793,40.67718506,28.85569763,-73.44493103,,,,,,,,0,38:06.7,0:17,60,0,38:07.2,1540931887,-0.028411135,0.057535997,-0.254787285,-0.075302124,-0.167831421,-0.87487793,40.42918396,28.90447998,-73.53466797,,,,,,,,0,38:06.7,0:17,60,0,38:07.2,1540931887,-0.206296448,0.210488796,-0.209579593,-0.077545166,-0.192886353,-0.923751831,40.31253052,29.23886108,-73.29437256,,,,,,,,0,38:06.7,0:17,60,0,38:07.2,1540931887,-0.190945987,0.281556315,-0.166661154,-0.057449341,-0.188613892,-0.972442627,40.35577393,28.99745178,-73.22296143,,,,,,,,0,38:06.7,0:17,60,0,38:07.2,1540931887,-0.190945987,0.281556315,-0.166661154,-0.057449341,-0.188613892,-0.972442627,40.54193115,28.96087646,-73.13615417,,,,,,,,0,38:06.7,0:17,60,0,38:07.2,1540931887,-0.005408348,0.288231262,-0.117437947,-0.021942139,-0.168334961,-1.043319702,40.54193115,28.96087646,-73.13615417,,,,,,,,0,38:06.7,0:17,60,0,38:07.3,1540931887,0.074106718,0.226837942,-0.102540757,-0.008834839,-0.169952393,-1.029098511,40.54129028,28.96081543,-73.2142334,,,,,,,,0,38:06.7,0:17,60,0,38:07.3,1540931887,0.074106718,0.226837942,-0.102540757,-0.008834839,-0.169952393,-1.029098511,40.65203857,29.01701355,-73.05000305,,,,,,,,0,38:06.7,0:17,60,0,38:07.3,1540931887,-0.019728964,0.009236375,-0.098503138,-0.009658813,-0.194030762,-0.964111328,40.31318665,29.23893738,-73.21627808,,,,,,,,0,38:06.7,0:17,60,0,38:07.3,1540931887,-0.113026687,-0.048193628,-0.118897892,-0.010818481,-0.195632935,-0.934356689,40.41629028,28.98509216,-73.37623596,,,,,,,,0,38:06.7,0:17,60,0,38:07.3,1540931887,-0.170595442,-0.007557252,-0.134896832,-0.020278931,-0.200027466,-0.930053711,40.19799805,28.87301636,-73.31420898,,,,,,,,0,38:06.7,0:17,60,0,38:07.3,1540931887,-0.15084171,-0.031632228,-0.112443189,-0.005523682,-0.210723877,-0.976318359,40.19799805,28.87301636,-73.31420898,,,,,,,,0,38:06.7,0:17,60,0,38:07.4,1540931887,-0.100344448,-0.156450594,-0.125459655,-0.007324219,-0.213699341,-1.006820679,40.17808533,28.64369202,-73.40190125,,,,,,,,0,38:06.7,0:17,60,0,38:07.4,1540931887,-0.088496044,-0.248359745,-0.160914318,-0.019134521,-0.224945068,-0.993087769,39.75028992,29.03892517,-73.41046143,,,,,,,,0,38:06.7,0:17,60,0,38:07.4,1540931887,-0.14425012,-0.235905473,-0.166239842,-0.032546997,-0.235580444,-0.985305786,39.36003113,28.88293457,-73.4375,,,,,,,,0,38:06.7,0:17,60,0,38:07.4,1540931887,-0.210644058,-0.117458454,-0.144660514,-0.045349121,-0.251373291,-1.00491333,39.3458252,28.96342468,-73.43527222,,,,,,,,0,38:06.7,0:17,60,0,38:07.4,1540931887,-0.231499805,0.026424417,-0.101643538,-0.03817749,-0.257736206,-1.049468994,39.15118408,29.39030457,-73.42996216,,,,,,,,0,38:06.7,0:17,60,0,38:07.5,1540931887,-0.230130408,0.17981131,-0.054336742,-0.021408081,-0.25012207,-1.099731445,39.11711121,29.24147034,-73.51544189,,,,,,,,0,38:06.7,0:17,60,0,38:07.5,1540931887,-0.185297422,0.243084556,-0.02642708,-0.006500244,-0.228607178,-1.18258667,39.11711121,29.24147034,-73.51544189,,,,,,,,0,38:06.7,0:17,60,0,38:07.5,1540931887,-0.082745747,0.157798952,-0.042619899,0.009094238,-0.199645996,-1.253173828,39.13064575,29.16091919,-73.59576416,,,,,,,,0,38:06.7,0:17,60,0,38:07.5,1540931888,-0.003463974,0.066225626,-0.053460562,0.025009155,-0.187088013,-1.261779785,38.96063232,29.11717224,-73.45048523,,,,,,,,0,38:06.7,0:17,60,0,38:07.5,1540931888,0.00753648,0.12965653,0.016221048,0.039825439,-0.203948975,-1.227005005,38.94136047,28.88790894,-73.46008301,,,,,,,,0,38:06.7,0:17,60,0,38:07.5,1540931888,-0.011548532,0.253783539,0.126677518,0.054336548,-0.210327148,-1.217147827,39.24485779,28.51705933,-73.53546143,,,,,,,,0,38:06.7,0:17,60,0,38:07.6,1540931888,-0.022839536,0.2927099,0.156712383,0.062347412,-0.167892456,-1.234130859,39.33247375,28.34358215,-73.84938049,,,,,,,,0,38:06.7,0:17,60,0,38:07.6,1540931888,-0.007403055,0.253615227,0.158802165,0.05632019,-0.137496948,-1.260147095,39.33247375,28.34358215,-73.84938049,,,,,,,,0,38:06.7,0:17,60,0,38:07.6,1540931888,0.053580937,0.126468726,0.161843229,0.069992065,-0.10345459,-1.278823853,39.48452759,28.15818787,-73.8480072,,,,,,,,0,38:06.7,0:17,60,0,38:07.6,1540931888,0.097235207,-0.045981873,0.175541198,0.101455688,-0.066009521,-1.272140503,39.29267883,27.88493347,-74.0247345,,,,,,,,0,38:06.7,0:17,60,0,38:07.6,1540931888,0.125528897,-0.177076777,0.162522335,0.103012085,-0.029708862,-1.235946655,39.30117798,27.49462891,-74.11686707,,,,,,,,0,38:06.7,0:17,60,0,38:07.6,1540931888,0.18089069,-0.233813293,0.152801264,0.090545654,-0.024581909,-1.218276978,38.98188782,26.93615723,-74.1550293,,,,,,,,0,38:06.7,0:17,60,0,38:07.7,1540931888,0.228774859,-0.182462754,0.179624623,0.111740112,-0.002090454,-1.172088623,38.70043945,26.83615112,-74.25212097,,,,,,,,0,38:06.7,0:17,60,0,38:07.7,1540931888,0.245428404,-0.293323758,0.273719697,0.149658203,0.033157349,-1.164337158,38.70043945,26.83615112,-74.25212097,,,,,,,,0,38:06.7,0:17,60,0,38:07.7,1540931888,0.167209765,-0.516744598,0.343068944,0.153167725,0.079849243,-1.113433838,38.42944336,26.34606934,-74.20706177,,,,,,,,0,38:06.7,0:17,60,0,38:07.7,1540931888,0.020248014,-0.674214916,0.313996813,0.114044189,0.117553711,-1.047225952,38.11325073,26.09715271,-74.46769714,,,,,,,,0,38:06.7,0:17,60,0,38:07.7,1540931888,0.00068896,-0.50251373,-0.110918795,0.042709351,0.138153076,-0.945602417,37.55607605,26.20698547,-74.57197571,,,,,,,,0,38:06.7,0:17,60,0,38:07.7,1540931888,0.00068896,-0.50251373,-0.110918795,0.042709351,0.138153076,-0.945602417,37.28443909,25.71681213,-74.60501099,,,,,,,,0,38:06.7,0:17,60,0,38:07.8,1540931888,0.180467513,-0.257131133,-0.235950214,0.053329468,0.063613892,-0.930328369,36.87295532,25.3313446,-74.87591553,,,,,,,,0,38:06.7,0:17,60,0,38:07.8,1540931888,0.472281526,0.082278362,-0.070689084,0.108734131,-0.100738525,-0.863082886,36.61668396,25.07003784,-75.36795044,,,,,,,,0,38:06.7,0:17,60,0,38:07.8,1540931888,0.472281526,0.082278362,-0.070689084,0.108734131,-0.100738525,-0.863082886,36.61668396,25.07003784,-75.36795044,,,,,,,,0,38:06.7,0:17,60,0,38:07.8,1540931888,0.433077664,0.203255118,0.064398165,0.092254639,-0.138839722,-0.82069397,36.65550232,24.51893616,-75.23020935,,,,,,,,0,38:06.7,0:17,60,0,38:07.8,1540931888,0.315283652,0.366250164,0.158863418,0.051376343,-0.133285522,-0.790634155,36.97122192,24.06738281,-75.542099,,,,,,,,0,38:06.7,0:17,60,0,38:07.8,1540931888,0.229863559,0.478415851,0.174014408,0.011764526,-0.104751587,-0.806747437,37.3500824,23.60374451,-75.69485474,,,,,,,,0,38:06.7,0:17,60,0,38:07.9,1540931888,0.313129687,0.14024446,0.151089118,0.051589966,-0.07371521,-0.929199219,37.43655396,23.1209259,-75.55201721,,,,,,,,0,38:06.7,0:17,60,0,38:07.9,1540931888,0.313129687,0.14024446,0.151089118,0.051589966,-0.07371521,-0.929199219,37.38320923,22.74282837,-75.64706421,,,,,,,,0,38:06.7,0:17,60,0,38:07.9,1540931888,0.338831056,-0.148779092,0.147513824,0.063171387,-0.097640991,-0.903091431,37.38320923,22.74282837,-75.64706421,,,,,,,,0,38:06.7,0:17,60,0,38:07.9,1540931888,0.116771092,-0.280443912,0.336947402,0.053726196,-0.170562744,-0.773742676,37.12509155,22.17207336,-75.76042175,,,,,,,,0,38:06.7,0:17,60,0,38:07.9,1540931888,0.116771092,-0.280443912,0.336947402,0.053726196,-0.170562744,-0.773742676,36.90354919,22.05967712,-76.08888245,,,,,,,,0,38:06.7,0:17,60,0,38:07.9,1540931888,-0.02567234,-0.158321997,0.433509895,0.032928467,-0.158782959,-0.758911133,37.10453796,21.94267273,-75.92619324,,,,,,,,0,38:06.7,0:17,60,0,38:08.0,1540931888,0.020352676,0.013374928,0.393017862,0.022247314,-0.090713501,-0.877334595,37.1174469,21.86204529,-76.08460999,,,,,,,,0,38:06.7,0:17,60,0,38:08.0,1540931888,0.020352676,0.013374928,0.393017862,0.022247314,-0.090713501,-0.877334595,37.1530304,21.31065369,-76.33738708,,,,,,,,0,38:06.7,0:17,60,0,38:08.0,1540931888,0.137335489,-0.009097358,0.322285102,0.04624939,-0.110549927,-0.923675537,37.1530304,21.31065369,-76.33738708,,,,,,,,0,38:06.7,0:17,60,0,38:08.0,1540931888,0.144245593,0.045032456,0.293436943,0.052185059,-0.113922119,-0.93800354,36.87548828,21.21102905,-75.96589661,,,,,,,,0,38:06.7,0:17,60,0,38:08.0,1540931888,0.144245593,0.045032456,0.293436943,0.052185059,-0.113922119,-0.93800354,37.11712646,20.85237122,-76.04415894,,,,,,,,0,38:06.7,0:17,60,0,38:08.0,1540931888,0.139627938,0.300893527,0.15454164,0.025726318,-0.108978271,-0.931976318,37.19056702,20.75939941,-76.35588074,,,,,,,,0,38:06.7,0:17,60,0,38:08.1,1540931888,0.136330945,0.369542097,0.03576146,0.021377563,-0.108825684,-0.968399048,37.53727722,20.14712524,-76.3598175,,,,,,,,0,38:06.7,0:17,60,0,38:08.1,1540931888,0.15139698,0.358249495,-0.151656904,0.011428833,-0.107147217,-1.044876099,37.58557129,20.21546936,-76.27658081,,,,,,,,0,38:06.7,0:17,60,0,38:08.1,1540931888,0.14833541,0.324442796,-0.345523846,0.022155762,-0.117248535,-1.111129761,37.79310608,19.70796204,-76.44030762,,,,,,,,0,38:06.7,0:17,60,0,38:08.1,1540931888,0.14833541,0.324442796,-0.345523846,0.022155762,-0.117248535,-1.111129761,37.79310608,19.70796204,-76.44030762,,,,,,,,0,38:06.7,0:17,60,0,38:08.1,1540931888,0.140006373,0.073253175,-0.532161637,0.103881836,-0.155609131,-1.240066528,37.48651123,19.76925659,-76.14245605,,,,,,,,0,38:06.7,0:17,60,0,38:08.1,1540931888,0.156481487,-0.197140233,-0.574262752,0.13331604,-0.153945923,-1.283798218,37.21617126,19.27923584,-76.01928711,,,,,,,,0,38:06.7,0:17,60,0,38:08.2,1540931888,0.156481487,-0.197140233,-0.574262752,0.13331604,-0.153945923,-1.283798218,36.83882141,19.04260254,-76.20474243,,,,,,,,0,38:06.7,0:17,60,0,38:08.2,1540931888,0.026175411,-0.607674239,-0.651839836,0.08631897,-0.150375366,-1.249130249,36.26564026,18.92347717,-75.92811584,,,,,,,,0,38:06.7,0:17,60,0,38:08.2,1540931888,-0.16385791,-0.39204714,-0.562646576,0.058578491,-0.171432495,-1.250579834,35.64157104,18.73577881,-76.04711914,,,,,,,,0,38:06.7,0:17,60,0,38:08.2,1540931888,-0.16385791,-0.39204714,-0.562646576,0.058578491,-0.171432495,-1.250579834,35.64157104,18.73577881,-76.04711914,,,,,,,,0,38:06.7,0:17,60,0,38:08.2,1540931888,-0.184818852,-0.12209049,-0.400608404,0.035354614,-0.060256958,-1.338546753,35.53910828,18.9896698,-75.80906677,,,,,,,,0,38:06.7,0:17,60,0,38:08.2,1540931888,0.021005949,-0.240352952,-0.532519833,0.03175354,0.054290771,-1.304107666,35.04441833,19.08735657,-75.83233643,,,,,,,,0,38:06.7,0:17,60,0,38:08.3,1540931888,0.190943324,-0.250152852,-0.653580212,0.029800415,0.061798096,-1.179107666,34.66639709,18.85066223,-76.09590149,,,,,,,,0,38:06.7,0:17,60,0,38:08.3,1540931888,0.292129331,-0.251179767,-0.639684636,0.036407471,-0.021224976,-1.079528809,34.43553162,17.80957031,-75.75691223,,,,,,,,0,38:06.7,0:17,60,0,38:08.3,1540931888,0.25958204,-0.211289076,-0.529328833,0.040847778,-0.082519531,-0.987060547,34.16893005,17.62915039,-75.77813721,,,,,,,,0,38:06.7,0:17,60,0,38:08.3,1540931888,0.15941123,-0.18589184,-0.418974628,0.019805908,-0.108886719,-0.931427002,34.16893005,17.62915039,-75.77813721,,,,,,,,0,38:06.7,0:17,60,0,38:08.3,1540931888,0.0325654,-0.208641095,-0.376137682,0.001098633,-0.09223938,-0.885421753,33.79663086,17.70228577,-75.95176697,,,,,,,,0,38:06.7,0:17,60,0,38:08.3,1540931888,-0.049717489,-0.212182034,-0.375051378,-0.008514404,-0.083618164,-0.85067749,33.3644104,17.78782654,-75.89404297,,,,,,,,0,38:06.7,0:17,60,0,38:08.4,1540931888,-0.031253527,-0.143359027,-0.319286117,0.011489868,-0.083511353,-0.836929321,33.16226196,17.59544373,-75.59997559,,,,,,,,0,38:06.7,0:17,60,0,38:08.4,1540931888,0.028297951,-0.063294018,-0.198194313,0.025238037,-0.089050293,-0.823059082,33.18623352,17.12477112,-75.53814697,,,,,,,,0,38:06.7,0:17,60,0,38:08.4,1540931888,0.043908602,-0.061683338,-0.097535079,0.021072388,-0.095275879,-0.798400879,33.15344238,16.97607422,-75.46740723,,,,,,,,0,38:06.7,0:17,60,0,38:08.4,1540931888,-0.033861561,-0.132533011,-0.045131526,0.008010864,-0.096130371,-0.745223999,33.15344238,16.97607422,-75.46740723,,,,,,,,0,38:06.7,0:17,60,0,38:08.4,1540931888,-0.147214219,-0.184495278,-0.032317992,-0.029159546,-0.104644775,-0.708312988,32.95568848,17.09338379,-75.23960876,,,,,,,,0,38:06.7,0:17,60,0,38:08.4,1540931888,-0.227898679,-0.126485504,-0.009738914,-0.051376343,-0.120666504,-0.718963623,32.87835693,17.18595886,-75.39649963,,,,,,,,0,38:06.7,0:17,60,0,38:08.5,1540931888,-0.231489685,-0.054107444,0.021406223,-0.056396484,-0.130004883,-0.768936157,32.76953125,17.12994385,-75.32643127,,,,,,,,0,38:06.7,0:17,60,0,38:08.5,1540931888,-0.184114446,-0.068507422,-0.007536213,-0.062149048,-0.120697021,-0.825927734,32.84490967,17.03718567,-75.40383911,,,,,,,,0,38:06.7,0:17,60,0,38:08.5,1540931888,-0.139184255,-0.122817799,-0.057944526,-0.067840576,-0.125274658,-0.856292725,32.55187988,17.01792908,-75.18632507,,,,,,,,0,38:06.7,0:17,60,0,38:08.5,1540931889,-0.120833211,-0.186834599,-0.051602741,-0.064117432,-0.145874023,-0.888259888,32.55253601,17.01799011,-75.10823059,,,,,,,,0,38:06.7,0:17,60,0,38:08.5,1540931889,-0.190025599,-0.249006627,-0.025962092,-0.080352783,-0.146942139,-0.938034058,32.55253601,17.01799011,-75.10823059,,,,,,,,0,38:06.7,0:17,60,0,38:08.5,1540931889,-0.383791074,-0.247791427,-0.135141843,-0.113464355,-0.101364136,-0.950302124,32.49134827,17.03025818,-75.03303528,,,,,,,,0,38:06.7,0:17,60,0,38:08.6,1540931889,-0.572770317,-0.20308361,-0.312804249,-0.12562561,-0.089859009,-0.993911743,32.34059143,17.21582031,-74.87820435,,,,,,,,0,38:06.7,0:17,60,0,38:08.6,1540931889,-0.567116159,-0.288319412,-0.37930418,-0.084884644,-0.111694336,-1.121429443,31.85795593,17.93318176,-74.64356995,,,,,,,,0,38:06.7,0:17,60,0,38:08.6,1540931889,-0.396009924,-0.43563856,-0.194268014,-0.021179199,-0.170501709,-1.282363892,31.74667358,17.56768799,-74.27293396,,,,,,,,0,38:06.7,0:17,60,0,38:08.6,1540931889,-0.151946123,-0.555647522,0.018626681,0.009918213,-0.167694092,-1.342712402,31.35446167,17.41151428,-74.53427124,,,,,,,,0,38:06.7,0:17,60,0,38:08.6,1540931889,-0.053108226,-0.449953849,0.127961162,-0.019927979,-0.12121582,-1.272705078,31.35446167,17.41151428,-74.53427124,,,,,,,,0,38:06.7,0:17,60,0,38:08.6,1540931889,0.084731932,0.0519628,0.05572851,-0.128646851,-0.06048584,-1.227279663,31.09292603,17.54084778,-74.54368591,,,,,,,,0,38:06.7,0:17,60,0,38:08.7,1540931889,0.084731932,0.0519628,0.05572851,-0.128646851,-0.06048584,-1.227279663,31.23080444,17.43592834,-74.54008484,,,,,,,,0,38:06.7,0:17,60,0,38:08.7,1540931889,0.288547113,0.287165997,-0.015778164,-0.122833252,-0.047698975,-1.231002808,31.41188049,17.08959961,-74.46508789,,,,,,,,0,38:06.7,0:17,60,0,38:08.7,1540931889,0.455336364,0.622429483,0.404373048,0.038589478,-0.160232544,-1.172714233,31.77786255,16.70657349,-74.45944214,,,,,,,,0,38:06.7,0:17,60,0,38:08.7,1540931889,0.455336364,0.622429483,0.404373048,0.038589478,-0.160232544,-1.172714233,32.56182861,16.31852722,-74.5092926,,,,,,,,0,38:06.7,0:17,60,0,38:08.7,1540931889,0.126768865,0.753842634,0.787982761,0.053085327,-0.189498901,-1.129455566,32.56182861,16.31852722,-74.5092926,,,,,,,,0,38:06.7,0:17,60,0,38:08.7,1540931889,-0.197811084,0.572754604,0.87029388,0.00038147,-0.099517822,-1.172286987,33.39848328,16.30847168,-74.54222107,,,,,,,,0,38:06.7,0:17,60,0,38:08.8,1540931889,-0.222535339,0.228200681,0.538978531,-0.069366455,0.085006714,-1.207702637,33.37203979,16.46963501,-74.30348206,,,,,,,,0,38:06.7,0:17,60,0,38:08.8,1540931889,0.381011533,-0.119648371,-0.205844775,-0.040267944,0.116104126,-1.06867981,33.44743347,16.37687683,-74.38088989,,,,,,,,0,38:06.7,0:17,60,0,38:08.8,1540931889,0.506641097,0.014201307,-0.169300613,0.021575928,-0.020263672,-0.948318481,33.09973145,15.97941589,-74.41461182,,,,,,,,0,38:06.7,0:17,60,0,38:08.8,1540931889,0.506641097,0.014201307,-0.169300613,0.021575928,-0.020263672,-0.948318481,33.35868835,15.849823,-74.71757507,,,,,,,,0,38:06.7,0:17,60,0,38:08.8,1540931889,0.355578345,0.132886945,-0.004205131,0.046005249,-0.108230591,-0.825210571,33.5198822,15.2741394,-74.73023987,,,,,,,,0,38:06.7,0:17,60,0,38:08.8,1540931889,0.355578345,0.132886945,-0.004205131,0.046005249,-0.108230591,-0.825210571,33.5198822,15.2741394,-74.73023987,,,,,,,,0,38:06.7,0:17,60,0,38:08.9,1540931889,0.234869503,0.204110259,0.055880044,0.053161621,-0.096435547,-0.770584106,33.79820251,15.06459045,-74.41067505,,,,,,,,0,38:06.7,0:17,60,0,38:08.9,1540931889,0.183750392,0.530381581,0.272608892,0.070449829,-0.095489502,-0.768325806,34.02941895,15.09603882,-74.63108826,,,,,,,,0,38:06.7,0:17,60,0,38:08.9,1540931889,0.183750392,0.530381581,0.272608892,0.070449829,-0.095489502,-0.768325806,34.38183594,14.7935791,-74.54512024,,,,,,,,0,38:06.7,0:17,60,0,38:08.9,1540931889,0.282120372,0.366776138,0.377327849,0.067504883,-0.071060181,-0.872955322,34.91975403,14.45448303,-74.45043945,,,,,,,,0,38:06.7,0:17,60,0,38:08.9,1540931889,0.274137813,0.068607024,0.307355954,0.05871582,-0.057098389,-0.85647583,35.05827332,14.34963989,-74.36872864,,,,,,,,0,38:06.7,0:17,60,0,38:08.9,1540931889,0.274137813,0.068607024,0.307355954,0.05871582,-0.057098389,-0.85647583,35.05827332,14.34963989,-74.36872864,,,,,,,,0,38:06.7,0:17,60,0,38:09.0,1540931889,0.160833092,-0.319530595,0.268353427,0.045333862,-0.124816895,-0.784881592,35.06677246,13.95932007,-74.46086121,,,,,,,,0,38:06.7,0:17,60,0,38:09.0,1540931889,0.092898782,-0.359026606,0.300446915,0.030792236,-0.158584595,-0.763015747,34.91470337,14.14471436,-74.4622345,,,,,,,,0,38:06.7,0:17,60,0,38:09.0,1540931889,0.092898782,-0.359026606,0.300446915,0.030792236,-0.158584595,-0.763015747,34.57272339,14.05706787,-74.40603638,,,,,,,,0,38:06.7,0:17,60,0,38:09.0,1540931889,-0.204389624,-0.27343101,0.165695491,-0.000839233,-0.187133789,-0.727340698,34.56962585,13.74749756,-74.18356323,,,,,,,,0,38:06.7,0:17,60,0,38:09.0,1540931889,-0.303893046,-0.087632115,0.193791042,0.017944336,-0.242370605,-0.806365967,34.47940063,13.92068481,-74.18200684,,,,,,,,0,38:06.7,0:17,60,0,38:09.0,1540931889,-0.24970118,-0.051257595,0.163838736,0.03112793,-0.200546265,-0.925231934,34.47940063,13.92068481,-74.18200684,,,,,,,,0,38:06.7,0:17,60,0,38:09.1,1540931889,-0.13224246,-0.142803225,0.054469634,0.030181885,-0.178848267,-1.030059814,34.59082031,13.97697449,-73.93969727,,,,,,,,0,38:06.7,0:17,60,0,38:09.1,1540931889,-0.077026875,-0.225312749,-0.001330249,0.036270142,-0.222091675,-1.085418701,34.36650085,14.56469727,-74.08612061,,,,,,,,0,38:06.7,0:17,60,0,38:09.1,1540931889,-0.128795264,-0.244139168,-0.037750308,0.014602661,-0.247314453,-1.122177124,34.44316101,14.47206116,-74.00735474,,,,,,,,0,38:06.7,0:17,60,0,38:09.1,1540931889,-0.160277557,-0.137509393,-0.120067552,-0.008865356,-0.229614258,-1.179244995,34.34657288,14.33535767,-74.17379761,,,,,,,,0,38:06.7,0:17,60,0,38:09.1,1540931889,-0.118088824,0.054040332,-0.247273975,-0.038131714,-0.157943726,-1.271682739,34.28733826,14.3478241,-73.86433411,,,,,,,,0,38:06.7,0:17,60,0,38:09.1,1540931889,-0.001852229,0.282521444,-0.32090958,-0.034805298,-0.133270264,-1.393051147,34.41038513,14.32333374,-73.93661499,,,,,,,,0,38:06.7,0:17,60,0,38:09.2,1540931889,0.233178396,0.035027226,-0.393019194,0.005218506,-0.119522095,-1.542175293,34.41038513,14.32333374,-73.93661499,,,,,,,,0,38:06.7,0:17,60,0,38:09.2,1540931889,0.307383118,-0.492094645,-0.477214499,0.039901733,-0.0859375,-1.5362854,34.02644348,14.47723389,-73.79563904,,,,,,,,0,38:06.7,0:17,60,0,38:09.2,1540931889,0.219509988,-0.763555449,-0.542850767,-0.020935059,-0.079925537,-1.394119263,33.8951416,14.19165039,-74.12564087,,,,,,,,0,38:06.7,0:17,60,0,38:09.2,1540931889,0.151201237,-0.72954555,-0.498887038,-0.093734741,-0.097930908,-1.303161621,33.1648407,13.94818115,-73.86221313,,,,,,,,0,38:06.7,0:17,60,0,38:09.2,1540931889,0.095319063,-0.49562573,-0.437545916,-0.141143799,-0.071655273,-1.211593628,32.91438293,13.68745422,-73.65138245,,,,,,,,0,38:06.7,0:17,60,0,38:09.2,1540931889,0.027685956,-0.170686522,-0.38894003,-0.15171814,-0.020401001,-1.115127563,32.85255432,13.69966125,-73.65429688,,,,,,,,0,38:06.7,0:17,60,0,38:09.3,1540931889,-0.009589244,0.134436638,-0.326444694,-0.146148682,-0.003662109,-1.040481567,32.85255432,13.69966125,-73.65429688,,,,,,,,0,38:06.7,0:17,60,0,38:09.3,1540931889,0.010720289,0.397888784,-0.259731177,-0.127990723,0.006469727,-1.003005981,32.9954834,13.90452576,-73.6388855,,,,,,,,0,38:06.7,0:17,60,0,38:09.3,1540931889,0.065035992,0.458933496,-0.238251717,-0.108551025,0.020217896,-0.999923706,33.10494995,13.96058655,-73.63082886,,,,,,,,0,38:06.7,0:17,60,0,38:09.3,1540931889,0.088371142,0.352896009,-0.284435192,-0.084793091,0.031784058,-0.961654663,33.3258667,14.07292175,-73.38046265,,,,,,,,0,38:06.7,0:17,60,0,38:09.3,1540931889,0.006046441,0.225146035,-0.327407427,-0.0574646,0.016860962,-0.87348938,33.52294922,13.95553589,-73.68635559,,,,,,,,0,38:06.7,0:17,60,0,38:09.3,1540931889,-0.126290028,0.181860347,-0.274956735,-0.01335144,-0.038330078,-0.796112061,33.61447144,13.7824707,-73.53167725,,,,,,,,0,38:06.7,0:17,60,0,38:09.4,1540931889,-0.154469202,0.121230821,-0.192568385,0.00630188,-0.072158813,-0.781814575,33.54481506,14.18507385,-73.36436462,,,,,,,,0,38:06.7,0:17,60,0,38:09.4,1540931889,-0.093243928,0.025341576,-0.162717278,-0.004669189,-0.057525635,-0.759918213,33.54481506,14.18507385,-73.36436462,,,,,,,,0,38:06.7,0:17,60,0,38:09.4,1540931889,-0.105879295,0.028681979,-0.156284945,-0.013412476,-0.048034668,-0.673370361,33.42243958,14.20962524,-73.21400452,,,,,,,,0,38:06.7,0:17,60,0,38:09.4,1540931889,-0.271352147,0.152385012,-0.129320972,-0.022399902,-0.080429077,-0.601821899,33.64398193,14.32200623,-72.88552856,,,,,,,,0,38:06.7,0:17,60,0,38:09.4,1540931889,-0.406013556,0.192474109,-0.093900663,-0.029754639,-0.104888916,-0.648422241,33.66633606,14.86082458,-73.09841919,,,,,,,,0,38:06.7,0:17,60,0,38:09.4,1540931889,-0.426289266,0.055342884,-0.103702694,-0.042282104,-0.096405029,-0.719421387,33.83959961,14.90489197,-72.85317993,,,,,,,,0,38:06.7,0:17,60,0,38:09.5,1540931889,-0.369021982,-0.149296811,-0.187496128,-0.060531616,-0.08241272,-0.750427246,33.83959961,14.90489197,-72.85317993,,,,,,,,0,38:06.7,0:17,60,0,38:09.5,1540931889,-0.284963563,-0.181448888,-0.192910335,-0.050109863,-0.111099243,-0.761047363,33.6733551,15.17079163,-72.85232544,,,,,,,,0,38:06.7,0:17,60,0,38:09.5,1540931889,-0.276928806,-0.091060668,-0.095352352,-0.043334961,-0.160171509,-0.761642456,33.65196228,15.64170837,-72.60176086,,,,,,,,0,38:06.7,0:17,60,0,38:09.5,1540931890,-0.352869377,0.040131707,0.007630489,-0.052764893,-0.195022583,-0.78968811,33.71444702,15.62956238,-72.52076721,,,,,,,,0,38:06.7,0:17,60,0,38:09.5,1540931890,-0.405258816,0.195120492,0.053881341,-0.066040039,-0.169662476,-0.84753418,33.81608582,16.07603455,-72.34251404,,,,,,,,0,38:06.7,0:17,60,0,38:09.5,1540931890,-0.391213304,0.348428556,0.090476371,-0.058532715,-0.143188477,-0.947692871,34.31712341,16.28819275,-72.15122986,,,,,,,,0,38:06.7,0:17,60,0,38:09.6,1540931890,-0.258992416,0.205959025,0.238047719,-0.006454468,-0.165679932,-1.199737549,34.5032959,16.25164795,-72.06440735,,,,,,,,0,38:06.7,0:17,60,0,38:09.6,1540931890,-0.258992416,0.205959025,0.238047719,-0.006454468,-0.165679932,-1.199737549,34.5032959,16.25164795,-72.06440735,,,,,,,,0,38:06.7,0:17,60,0,38:09.6,1540931890,-0.185255344,-0.115183581,0.30723984,-0.008071899,-0.162872314,-1.290222168,34.40522766,16.81523132,-71.89263916,,,,,,,,0,38:06.7,0:17,60,0,38:09.6,1540931890,-0.371830019,-0.231069705,0.252527859,-0.100646973,-0.113327026,-1.331619263,34.4393158,16.96405029,-71.80717468,,,,,,,,0,38:06.7,0:17,60,0,38:09.6,1540931890,-0.371830019,-0.231069705,0.252527859,-0.100646973,-0.113327026,-1.331619263,34.16423035,17.1739502,-71.73626709,,,,,,,,0,38:06.7,0:17,60,0,38:09.6,1540931890,-0.354263009,-0.188532897,0.121930966,-0.123703003,-0.056930542,-1.449554443,34.38317871,17.28607178,-71.72018433,,,,,,,,0,38:06.7,0:17,60,0,38:09.7,1540931890,0.250294532,-0.661425884,-0.190418681,-0.08291626,0.016708374,-1.649017334,33.75978088,17.09843445,-71.76107788,,,,,,,,0,38:06.7,0:17,60,0,38:09.7,1540931890,0.250294532,-0.661425884,-0.190418681,-0.08291626,0.016708374,-1.649017334,33.75978088,17.09843445,-71.76107788,,,,,,,,0,38:06.7,0:17,60,0,38:09.7,1540931890,0.255902084,-0.470835962,0.010066216,-0.005584717,-0.134902954,-1.311004639,33.14207458,17.22062683,-71.71208191,,,,,,,,0,38:06.7,0:17,60,0,38:09.7,1540931890,-0.072557291,-0.225726338,0.361690299,0.009063721,-0.182113647,-1.167266846,32.9707489,17.17675781,-71.72303772,,,,,,,,0,38:06.7,0:17,60,0,38:09.7,1540931890,-0.072557291,-0.225726338,0.361690299,0.009063721,-0.182113647,-1.167266846,33.01904297,17.24510193,-71.63980103,,,,,,,,0,38:06.7,0:17,60,0,38:09.7,1540931890,-0.107942979,-0.381408344,0.428971069,-0.095779419,0.049194336,-1.122573853,32.74330139,17.4549408,-71.64698792,,,,,,,,0,38:06.7,0:17,60,0,38:09.8,1540931890,-0.008124239,-0.373655616,0.144107375,-0.151535034,0.114486694,-1.017318726,32.88052368,17.34996033,-71.72149658,,,,,,,,0,38:06.7,0:17,60,0,38:09.8,1540931890,-0.008124239,-0.373655616,0.144107375,-0.151535034,0.114486694,-1.017318726,32.88052368,17.34996033,-71.72149658,,,,,,,,0,38:06.7,0:17,60,0,38:09.8,1540931890,0.139140313,0.04832652,-0.24734295,-0.075012207,0.03717041,-0.887084961,32.53135681,17.65272522,-71.41697693,,,,,,,,0,38:06.7,0:17,60,0,38:09.8,1540931890,0.239493816,0.30128874,-0.183874229,0.003829956,-0.034744263,-0.848556519,32.45466614,17.74536133,-71.4957428,,,,,,,,0,38:06.7,0:17,60,0,38:09.8,1540931890,0.241974284,0.495162074,0.014473748,0.067718506,-0.073242188,-0.806793213,32.72715759,17.53521729,-71.87904358,,,,,,,,0,38:06.7,0:17,60,0,38:09.8,1540931890,0.186678804,0.598790466,0.198803111,0.081008911,-0.068695068,-0.806091309,33.26948547,17.5058136,-71.85064697,,,,,,,,0,38:06.7,0:17,60,0,38:09.9,1540931890,0.116697322,0.57749583,0.282320908,0.07824707,-0.026535034,-0.808532715,33.48599243,17.30847168,-71.53398132,,,,,,,,0,38:06.7,0:17,60,0,38:09.9,1540931890,0.065652247,0.419053458,0.266074827,0.071548462,0.018447876,-0.822067261,33.79321289,17.2472229,-71.75372314,,,,,,,,0,38:06.7,0:17,60,0,38:09.9,1540931890,0.093304914,0.098901547,0.19820896,0.071395874,0.029724121,-0.854934692,33.79321289,17.2472229,-71.75372314,,,,,,,,0,38:06.7,0:17,60,0,38:09.9,1540931890,0.185190097,-0.327014344,0.1880237,0.090118408,0.007247925,-0.86126709,33.56707764,17.5255127,-71.52149963,,,,,,,,0,38:06.7,0:17,60,0,38:09.9,1540931890,0.235564055,-0.560240943,0.23698352,0.085205078,-0.022415161,-0.786239624,33.56707764,17.5255127,-71.52149963,,,,,,,,0,38:06.7,0:17,60,0,38:09.9,1540931890,0.202556837,-0.481013765,0.248868675,0.048217773,-0.037368774,-0.676422119,33.20895386,17.51815796,-71.69737244,,,,,,,,0,38:06.7,0:17,60,0,38:10.0,1540931890,0.145069042,-0.315035712,0.26407932,0.028549194,-0.07484436,-0.65486145,33.06668091,17.31338501,-71.63467407,,,,,,,,0,38:06.7,0:17,60,0,38:10.0,1540931890,0.04244413,-0.124880417,0.292180996,0.009689331,-0.102401733,-0.690887451,33.25218201,17.27674866,-71.62594604,,,,,,,,0,38:06.7,0:17,60,0,38:10.0,1540931890,-0.023741282,0.000315585,0.248446032,-0.007995605,-0.087997437,-0.766174316,33.25218201,17.27674866,-71.62594604,,,,,,,,0,38:06.7,0:17,60,0,38:10.0,1540931890,-0.034221354,0.102340221,0.185393562,-0.008972168,-0.080307007,-0.849487305,33.48092651,16.998703,-71.54579163,,,,,,,,0,38:06.7,0:17,60,0,38:10.0,1540931890,-0.014651647,0.257109561,0.113832027,-0.006530762,-0.100845337,-0.933776855,33.51876831,17.45716858,-71.60472107,,,,,,,,0,38:06.7,0:17,60,0,38:10.0,1540931890,0.022530343,0.376072434,0.02830088,-0.002090454,-0.12638855,-1.022918701,33.5838623,17.44528198,-71.21133423,,,,,,,,0,38:06.7,0:17,60,0,38:10.1,1540931890,0.050398193,0.213392174,0.070927969,0.035690308,-0.18057251,-1.159942627,33.73773193,17.56930542,-71.58863831,,,,,,,,0,38:06.7,0:17,60,0,38:10.1,1540931890,-0.029519543,-0.071758343,0.163760439,0.035324097,-0.189102173,-1.239639282,33.74098206,17.56962585,-71.19815063,,,,,,,,0,38:06.7,0:17,60,0,38:10.1,1540931890,-0.234652988,-0.145257861,0.10268004,-0.024505615,-0.140228271,-1.252746582,33.74098206,17.56962585,-71.19815063,,,,,,,,0,38:06.7,0:17,60,0,38:10.1,1540931890,-0.396005929,-0.087677388,-0.114595023,-0.073577881,-0.095474243,-1.28994751,33.46784973,17.77972412,-70.89292908,,,,,,,,0,38:06.7,0:17,60,0,38:10.1,1540931890,-0.393692973,0.104593521,-0.326389034,-0.111206055,-0.059448242,-1.362487793,33.40061951,18.49180603,-71.02619934,,,,,,,,0,38:06.7,0:17,60,0,38:10.1,1540931890,-0.181377516,0.32176046,-0.50607704,-0.113098145,-0.009033203,-1.441360474,33.31234741,18.66519165,-70.79039001,,,,,,,,0,38:06.7,0:17,60,0,38:10.2,1540931890,0.266351795,0.242392933,-0.666911996,-0.064498901,0.008453369,-1.530502319,33.39932251,18.49168396,-71.18240356,,,,,,,,0,38:06.7,0:17,60,0,38:10.2,1540931890,0.739377408,-0.136285671,-0.69212281,0.003463745,-0.010391235,-1.547988892,32.98916626,18.10635376,-71.29711914,,,,,,,,0,38:06.7,0:17,60,0,38:10.2,1540931890,0.867057607,-0.191298323,-0.495182847,0.013061523,-0.091262817,-1.370071411,32.88687134,17.65982056,-71.55349731,,,,,,,,0,38:06.7,0:17,60,0,38:10.2,1540931890,0.677041063,0.091330446,-0.121057716,-0.016235352,-0.144424438,-1.198486328,32.88687134,17.65982056,-71.55349731,,,,,,,,0,38:06.7,0:17,60,0,38:10.2,1540931890,0.389590906,0.310336298,0.168414313,-0.03465271,-0.067962646,-1.120986938,33.0922699,17.8525238,-71.45706177,,,,,,,,0,38:06.7,0:17,60,0,38:10.2,1540931890,0.253393386,0.282607198,0.126649289,-0.094863892,0.052963257,-1.119232178,33.25920105,17.58668518,-71.37983704,,,,,,,,0,38:06.7,0:17,60,0,38:10.3,1540931890,0.266027689,0.148751928,0.030103574,-0.103668213,0.10925293,-1.108306885,33.41191101,17.40135193,-71.30036926,,,,,,,,0,38:06.7,0:17,60,0,38:10.3,1540931890,0.341792491,0.022562301,0.028858813,-0.083374023,0.08253479,-1.050994873,33.54652405,17.29614258,-71.68725586,,,,,,,,0,38:06.7,0:17,60,0,38:10.3,1540931890,0.364546273,-0.005021923,0.110204802,-0.056640625,0.029769897,-0.947128296,33.81655884,16.77645874,-71.76997375,,,,,,,,0,38:06.7,0:17,60,0,38:10.3,1540931890,0.271136963,0.077430077,0.272029122,-0.029220581,-0.025360107,-0.827972412,33.81655884,16.77645874,-71.76997375,,,,,,,,0,38:06.7,0:17,60,0,38:10.3,1540931890,0.069742863,0.221544376,0.4200343,-0.031311035,-0.04624939,-0.729675293,33.67868042,16.88139343,-71.77357483,,,,,,,,0,38:06.7,0:17,60,0,38:10.3,1540931890,-0.157437295,0.253425344,0.295908356,-0.107025146,0.037490845,-0.74772644,33.75978088,17.09843445,-71.76107788,,,,,,,,0,38:06.7,0:17,60,0,38:10.4,1540931890,-0.157437295,0.253425344,0.295908356,-0.107025146,0.037490845,-0.74772644,34.18283081,17.40313721,-71.80477905,,,,,,,,0,38:06.7,0:17,60,0,38:10.4,1540931890,-0.083046418,0.045886266,0.084674674,-0.112838745,0.063476563,-0.778106689,34.11904907,17.41516113,-72.04199219,,,,,,,,0,38:06.7,0:17,60,0,38:10.4,1540931890,-0.001279915,-0.164921311,-0.138344294,-0.078262329,-0.028717041,-0.715179443,34.10174561,17.18611145,-71.817276,,,,,,,,0,38:06.7,0:17,60,0,38:10.4,1540931890,-0.001279915,-0.164921311,-0.138344294,-0.078262329,-0.028717041,-0.715179443,34.10174561,17.18611145,-71.817276,,,,,,,,0,38:06.7,0:17,60,0,38:10.4,1540931890,0.011092865,-0.092430865,-0.173596291,-0.078216553,-0.072875977,-0.696365356,34.16552734,17.17408752,-71.58007813,,,,,,,,0,38:06.7,0:17,60,0,38:10.4,1540931890,0.156585616,-0.012226839,-0.293468901,-0.11505127,-0.101806641,-0.740814209,33.73513794,17.56904602,-71.90103149,,,,,,,,0,38:06.7,0:17,60,0,38:10.5,1540931890,0.156585616,-0.012226839,-0.293468901,-0.11505127,-0.101806641,-0.740814209,33.81115723,17.47634888,-71.90034485,,,,,,,,0,38:06.7,0:17,60,0,38:10.5,1540931890,0.009947439,-0.143608831,-0.355705644,-0.104263306,-0.178527832,-0.758148193,33.59092712,17.36408997,-72.07261658,,,,,,,,0,38:06.7,0:17,60,0,38:10.5,1540931890,-0.123297967,-0.174932399,-0.317161181,-0.09677124,-0.212768555,-0.817367554,33.53102112,17.3764801,-71.84121704,,,,,,,,0,38:06.7,0:17,60,0,38:10.5,1540931891,-0.123297967,-0.174932399,-0.317161181,-0.09677124,-0.212768555,-0.817367554,33.28239441,17.42520142,-72.00906372,,,,,,,,0,38:06.7,0:17,60,0,38:10.5,1540931891,-0.14735004,0.101560713,-0.159397648,-0.10218811,-0.199157715,-0.959716797,33.28239441,17.42520142,-72.00906372,,,,,,,,0,38:06.7,0:17,60,0,38:10.5,1540931891,-0.052758286,0.194487192,-0.092912364,-0.081298828,-0.178329468,-1.046615601,33.22689819,17.74729919,-71.84396362,,,,,,,,0,38:06.7,0:17,60,0,38:10.6,1540931891,-0.052758286,0.194487192,-0.092912364,-0.081298828,-0.178329468,-1.046615601,33.24681091,17.97662354,-71.75628662,,,,,,,,0,38:06.7,0:17,60,0,38:10.6,1540931891,0.021370802,0.146760949,0.033372604,-0.065811157,-0.156295776,-1.17829895,33.23001099,18.05686951,-72.06645203,,,,,,,,0,38:06.7,0:17,60,0,38:10.6,1540931891,-0.053128998,0.172567246,-0.020120715,-0.070602417,-0.11000061,-1.192840576,33.61523438,17.90310669,-72.05122375,,,,,,,,0,38:06.7,0:17,60,0,38:10.6,1540931891,-0.171899325,0.211576431,-0.023256587,-0.056915283,-0.120956421,-1.240341187,33.72468567,17.95918274,-72.04318237,,,,,,,,0,38:06.7,0:17,60,0,38:10.6,1540931891,-0.260649701,0.220601351,0.096712429,-0.003768921,-0.144378662,-1.306777954,33.72468567,17.95918274,-72.04318237,,,,,,,,0,38:06.7,0:17,60,0,38:10.6,1540931891,-0.253911904,0.064425063,0.186470545,0.022003174,-0.127822876,-1.368972778,33.6421051,18.44238281,-71.71743774,,,,,,,,0,38:06.7,0:17,60,0,38:10.7,1540931891,-0.229933866,-0.066804064,0.217357887,0.026901245,-0.103363037,-1.366027832,33.95570374,18.69100952,-71.7691803,,,,,,,,0,38:06.7,0:17,60,0,38:10.7,1540931891,-0.254721505,-0.113238142,0.257999323,0.013092041,-0.100616455,-1.319030762,33.5897522,19.07403564,-71.77482605,,,,,,,,0,38:06.7,0:17,60,0,38:10.7,1540931891,-0.349601412,-0.087857418,0.35978534,0.028289795,-0.107116699,-1.263946533,33.82159424,19.1055603,-71.91717529,,,,,,,,0,38:06.7,0:17,60,0,38:10.7,1540931891,-0.423246605,-0.037966291,0.502289226,0.047088623,-0.102508545,-1.229858398,33.96388245,19.31036377,-71.97987366,,,,,,,,0,38:06.7,0:17,60,0,38:10.7,1540931891,-0.312559504,-0.039062981,0.510828119,0.026565552,-0.032928467,-1.227661133,33.96388245,19.31036377,-71.97987366,,,,,,,,0,38:06.7,0:17,60,0,38:10.7,1540931891,-0.032547024,-0.122271585,0.36073742,-0.001495361,0.04045105,-1.196060181,34.2381134,19.80076599,-71.63444519,,,,,,,,0,38:06.7,0:17,60,0,38:10.8,1540931891,0.23714331,-0.187976829,0.186040977,-0.009002686,0.044647217,-1.100387573,33.91978455,20.2520752,-71.63496399,,,,,,,,0,38:06.7,0:17,60,0,38:10.8,1540931891,0.327925944,-0.083653618,0.116541794,0.007965088,-0.008743286,-0.971969604,34.03840637,19.91790771,-71.64094543,,,,,,,,0,38:06.7,0:17,60,0,38:10.8,1540931891,0.262173296,-0.002094576,0.164847008,0.026885986,-0.101379395,-0.842758179,33.93742371,19.47151184,-71.74111938,,,,,,,,0,38:06.7,0:17,60,0,38:10.8,1540931891,0.181250749,0.035294075,0.205605357,0.033111572,-0.109375,-0.794555664,34.10041809,19.20530701,-72.13246155,,,,,,,,0,38:06.7,0:17,60,0,38:10.8,1540931891,0.091268128,0.114995296,0.235709464,0.040679932,-0.099899292,-0.74772644,34.19197083,19.03224182,-71.97781372,,,,,,,,0,38:06.7,0:17,60,0,38:10.8,1540931891,-0.036189962,0.245879011,0.269098313,0.048980713,-0.091217041,-0.728088379,34.19197083,19.03224182,-71.97781372,,,,,,,,0,38:06.7,0:17,60,0,38:10.9,1540931891,-0.151139718,0.363629081,0.311034845,0.058822632,-0.080551147,-0.757568359,34.35414124,19.46635437,-71.95281982,,,,,,,,0,38:06.7,0:17,60,0,38:10.9,1540931891,-0.179050445,0.325800741,0.37096316,0.069107056,-0.086700439,-0.823883057,34.76365662,19.85162354,-71.91619873,,,,,,,,0,38:06.7,0:17,60,0,38:10.9,1540931891,-0.099582784,0.148692806,0.381434177,0.059570313,-0.071884155,-0.874908447,34.74946594,19.93211365,-71.91398621,,,,,,,,0,38:06.7,0:17,60,0,38:10.9,1540931891,0.055303203,-0.104436128,0.287919672,0.034881592,-0.054397583,-0.881896973,35.30403137,19.82202148,-72.12210083,,,,,,,,0,38:06.7,0:17,60,0,38:10.9,1540931891,0.134880321,-0.295169063,0.189145956,0.017242432,-0.063064575,-0.827957153,35.03549194,19.64138794,-72.37759399,,,,,,,,0,38:06.7,0:17,60,0,38:10.9,1540931891,0.088906171,-0.262091004,0.14207991,-0.006576538,-0.111099243,-0.757217407,35.03549194,19.64138794,-72.37759399,,,,,,,,0,38:06.7,0:17,60,0,38:11.0,1540931891,-0.026588201,-0.093461508,0.174441579,-0.01071167,-0.164718628,-0.73866272,34.93496704,19.89547729,-71.90525818,,,,,,,,0,38:06.7,0:17,60,0,38:11.0,1540931891,-0.108461763,0.064003484,0.213206552,-0.008895874,-0.193756104,-0.781295776,34.97937012,19.96343994,-72.29060364,,,,,,,,0,38:06.7,0:17,60,0,38:11.0,1540931891,-0.094929975,0.148363373,0.182252364,-0.011383057,-0.178817749,-0.872360229,34.97720337,20.66362,-72.0304718,,,,,,,,0,38:06.7,0:17,60,0,38:11.0,1540931891,-0.020675984,0.166526398,0.060178652,-0.027755737,-0.145889282,-0.956314087,35.23043823,20.22421265,-72.42333984,,,,,,,,0,38:06.7,0:17,60,0,38:11.0,1540931891,0.069161495,0.153297411,-0.092992525,-0.038070679,-0.137680054,-1.025192261,35.35281372,20.19966125,-72.57373047,,,,,,,,0,38:06.7,0:17,60,0,38:11.0,1540931891,0.159020278,0.055304268,-0.146678124,-0.001922607,-0.160812378,-1.082748413,35.35281372,20.19966125,-72.57373047,,,,,,,,0,38:06.7,0:17,60,0,38:11.1,1540931891,0.176049862,-0.139690256,-0.111584319,0.02494812,-0.179428101,-1.115097046,35.36767578,20.11923218,-72.49784851,,,,,,,,0,38:06.7,0:17,60,0,38:11.1,1540931891,0.052462143,-0.163363894,-0.115867215,-0.013305664,-0.158508301,-1.089447021,35.06092834,20.48979187,-72.81297302,,,,,,,,0,38:06.7,0:17,60,0,38:11.1,1540931891,-0.090579435,-0.036168657,-0.204557403,-0.066848755,-0.13180542,-1.109863281,35.17236328,20.54606628,-72.57063293,,,,,,,,0,38:06.7,0:17,60,0,38:11.1,1540931891,-0.130851757,0.144082075,-0.283569132,-0.079223633,-0.105117798,-1.209152222,35.29278564,20.52131653,-72.95530701,,,,,,,,0,38:06.7,0:17,60,0,38:11.1,1540931891,-0.00072145,0.175521224,-0.343529937,-0.066833496,-0.076538086,-1.35194397,35.41268921,20.18725586,-72.80509949,,,,,,,,0,38:06.7,0:17,60,0,38:11.1,1540931891,0.209147628,-0.189232775,-0.514297419,-0.051544189,-0.008926392,-1.453048706,34.79432678,20.30935669,-72.834198,,,,,,,,0,38:06.7,0:17,60,0,38:11.2,1540931891,0.194395313,-0.671795168,-0.708715103,-0.049316406,0.008270264,-1.398880005,34.79432678,20.30935669,-72.834198,,,,,,,,0,38:06.7,0:17,60,0,38:11.2,1540931891,-0.113491142,-0.650799605,-0.621875279,-0.04498291,-0.086914063,-1.277770996,34.22428894,20.49981689,-72.78005981,,,,,,,,0,38:06.7,0:17,60,0,38:11.2,1540931891,-0.459502613,-0.265839669,-0.308625483,-0.036987305,-0.135543823,-1.237991333,33.94920349,20.70973206,-72.70913696,,,,,,,,0,38:06.7,0:17,60,0,38:11.2,1540931891,-0.42623041,-0.06549805,-0.178812092,-0.053436279,-0.031173706,-1.318984985,33.82667542,21.04350281,-73.17173767,,,,,,,,0,38:06.7,0:17,60,0,38:11.2,1540931891,-0.130306342,-0.24837173,-0.327958701,-0.051437378,0.115890503,-1.336273193,33.81314087,21.12408447,-73.09141541,,,,,,,,0,38:06.7,0:17,60,0,38:11.2,1540931891,0.035792885,-0.334817672,-0.476955107,-0.055114746,0.125442505,-1.180114746,33.48146057,20.95553589,-73.50604248,,,,,,,,0,38:06.7,0:17,60,0,38:11.3,1540931891,-0.049636529,-0.109164305,-0.441317751,-0.058441162,0.03692627,-1.007400513,33.48146057,20.95553589,-73.50604248,,,,,,,,0,38:06.7,0:17,60,0,38:11.3,1540931891,-0.215817781,0.070442209,-0.327544846,-0.054840088,-0.024383545,-0.947860718,33.53300476,21.02420044,-73.03231812,,,,,,,,0,38:06.7,0:17,60,0,38:11.3,1540931891,-0.304169482,0.093995472,-0.325352798,-0.050384521,-0.00718689,-0.925460815,33.33770752,21.45103455,-73.1051178,,,,,,,,0,38:06.7,0:17,60,0,38:11.3,1540931891,-0.116307702,-0.034794999,-0.486186156,-0.058959961,-0.002944946,-0.874252319,33.15594482,21.79727173,-73.25822449,,,,,,,,0,38:06.7,0:17,60,0,38:11.3,1540931891,-0.016796024,-0.109201056,-0.510931716,-0.03302002,-0.035049438,-0.814239502,33.27767944,21.77267456,-73.48670959,,,,,,,,0,38:06.7,0:17,60,0,38:11.3,1540931891,-0.015860989,-0.225053624,-0.483232444,-0.010559082,-0.073410034,-0.769210815,32.94924927,21.60444641,-73.51081848,,,,,,,,0,38:06.7,0:17,60,0,38:11.4,1540931891,-0.056676595,-0.396911936,-0.414899459,-0.006729126,-0.093353271,-0.745559692,32.94924927,21.60444641,-73.51081848,,,,,,,,0,38:06.7,0:17,60,0,38:11.4,1540931891,-0.066376893,-0.513889689,-0.350789715,-0.04498291,-0.099502563,-0.714645386,32.71934509,21.57313538,-73.13420105,,,,,,,,0,38:06.7,0:17,60,0,38:11.4,1540931891,-0.057508301,-0.462173231,-0.321814788,-0.093032837,-0.090560913,-0.659790039,32.11956787,21.92442322,-73.23179626,,,,,,,,0,38:06.7,0:17,60,0,38:11.4,1540931891,-0.096353967,-0.222803253,-0.311872409,-0.126785278,-0.090209961,-0.623626709,31.70793152,22.23936462,-73.00830078,,,,,,,,0,38:06.7,0:17,60,0,38:11.4,1540931891,-0.158133179,0.047020506,-0.289036602,-0.142318726,-0.110397339,-0.663101196,31.60810852,22.10235596,-73.56524658,,,,,,,,0,38:06.7,0:17,60,0,38:11.4,1540931891,-0.144140398,0.200234827,-0.228882717,-0.131759644,-0.118804932,-0.768447876,31.85609436,22.05357361,-73.47550964,,,,,,,,0,38:06.7,0:17,60,0,38:11.5,1540931891,-0.034624823,0.302876783,-0.193444032,-0.120651245,-0.094421387,-0.86265564,32.21421814,22.06092834,-73.29963684,,,,,,,,0,38:06.7,0:17,60,0,38:11.5,1540931891,0.104004164,0.374744316,-0.105578092,-0.082733154,-0.090820313,-0.934310913,32.21421814,22.06092834,-73.29963684,,,,,,,,0,38:06.7,0:17,60,0,38:11.5,1540931891,0.104004164,0.374744316,-0.105578092,-0.082733154,-0.090820313,-0.934310913,32.20001221,22.14141846,-73.29740906,,,,,,,,0,38:06.7,0:17,60,0,38:11.5,1540931892,0.137160786,0.357439361,0.085005971,-0.051864624,-0.094619751,-1.045501709,32.52908325,22.30969238,-73.19519043,,,,,,,,0,38:06.7,0:17,60,0,38:11.5,1540931892,0.055038751,0.156941148,0.111549964,-0.060897827,-0.078826904,-1.106964111,32.6907959,22.04335022,-73.74272156,,,,,,,,0,38:06.7,0:17,60,0,38:11.5,1540931892,0.055038751,0.156941148,0.111549964,-0.060897827,-0.078826904,-1.106964111,33.28666687,21.69166565,-74.11369324,,,,,,,,0,38:06.7,0:17,60,0,38:11.6,1540931892,-0.223396339,-0.159795258,0.194753508,-0.058547974,-0.079956055,-1.160552979,33.3072052,21.92103577,-73.94790649,,,,,,,,0,38:06.7,0:17,60,0,38:11.6,1540931892,-0.393200289,-0.147632069,0.265486268,-0.065322876,-0.077636719,-1.191940308,33.3072052,21.92103577,-73.94790649,,,,,,,,0,38:06.7,0:17,60,0,38:11.6,1540931892,-0.393200289,-0.147632069,0.265486268,-0.065322876,-0.077636719,-1.191940308,33.06687927,22.27984619,-73.71347046,,,,,,,,0,38:06.7,0:17,60,0,38:11.6,1540931892,-0.341766392,-0.06904831,0.235586692,-0.096572876,-0.024383545,-1.35206604,33.14077759,22.88734436,-73.45263672,,,,,,,,0,38:06.7,0:17,60,0,38:11.6,1540931892,-0.341766392,-0.06904831,0.235586692,-0.096572876,-0.024383545,-1.35206604,33.24241638,23.33380127,-73.27438354,,,,,,,,0,38:06.7,0:17,60,0,38:11.6,1540931892,-0.357173045,0.103801497,0.324685143,-0.044952393,-0.032424927,-1.319625854,33.67201233,23.2480011,-73.64450073,,,,,,,,0,38:06.7,0:17,60,0,38:11.7,1540931892,-0.415300797,0.230372223,0.458712986,-0.008865356,-0.028305054,-1.345336914,33.92570496,23.5090332,-73.46484375,,,,,,,,0,38:06.7,0:17,60,0,38:11.7,1540931892,-0.415300797,0.230372223,0.458712986,-0.008865356,-0.028305054,-1.345336914,33.92570496,23.5090332,-73.46484375,,,,,,,,0,38:06.7,0:17,60,0,38:11.7,1540931892,0.114221914,-0.117980966,0.287888779,-0.020065308,0.136047363,-1.385467529,34.33276367,23.58479309,-73.12765503,,,,,,,,0,38:06.7,0:17,60,0,38:11.7,1540931892,0.377871666,-0.396306866,0.013341372,-0.037490845,0.150360107,-1.229354858,34.20713806,23.60902405,-73.36776733,,,,,,,,0,38:06.7,0:17,60,0,38:11.7,1540931892,0.377871666,-0.396306866,0.013341372,-0.037490845,0.150360107,-1.229354858,33.92636108,23.5091095,-73.38674927,,,,,,,,0,38:06.7,0:17,60,0,38:11.7,1540931892,0.306017449,-0.344053249,-0.168623371,0.01171875,-0.018203735,-0.839782715,33.65014648,23.01846313,-73.96644592,,,,,,,,0,38:06.7,0:17,60,0,38:11.8,1540931892,0.14143942,-0.109265771,-0.063349678,0.034744263,-0.089004517,-0.745635986,33.67723083,22.85736084,-74.12710571,,,,,,,,0,38:06.7,0:17,60,0,38:11.8,1540931892,0.018821092,0.107727529,0.063309198,0.041397095,-0.105911255,-0.726516724,33.98641968,22.79631042,-74.11256409,,,,,,,,0,38:06.7,0:17,60,0,38:11.8,1540931892,-0.008582037,0.243836366,0.172711589,0.046218872,-0.084732056,-0.751312256,33.98641968,22.79631042,-74.11256409,,,,,,,,0,38:06.7,0:17,60,0,38:11.8,1540931892,0.007504255,0.408696957,0.290705871,0.051345825,-0.079055786,-0.778366089,34.06945801,23.0135498,-73.86575317,,,,,,,,0,38:06.7,0:17,60,0,38:11.8,1540931892,0.039599608,0.482570116,0.403229753,0.047805786,-0.073318481,-0.830825806,34.46476746,23.47929382,-73.82691956,,,,,,,,0,38:06.7,0:17,60,0,38:11.8,1540931892,0.096312688,0.354305886,0.425545978,0.031295776,-0.047454834,-0.878433228,35.15020752,22.95436096,-74.27754211,,,,,,,,0,38:06.7,0:17,60,0,38:11.9,1540931892,0.163661635,0.098780906,0.329907868,0.007736206,-0.016281128,-0.879959106,35.44013977,22.66403198,-74.27256775,,,,,,,,0,38:06.7,0:17,60,0,38:11.9,1540931892,0.192196341,-0.136885415,0.230020153,-0.001998901,-0.022476196,-0.843734741,35.57540894,22.55885315,-74.58137512,,,,,,,,0,38:06.7,0:17,60,0,38:11.9,1540931892,0.096687661,-0.196603074,0.246032409,0.004638672,-0.074356079,-0.777359009,35.57540894,22.55885315,-74.58137512,,,,,,,,0,38:06.7,0:17,60,0,38:11.9,1540931892,-0.07690357,-0.024419589,0.34052243,-0.007522583,-0.1197052,-0.753631592,35.57019043,22.94950867,-74.09875488,,,,,,,,0,38:06.7,0:17,60,0,38:11.9,1540931892,-0.18412936,0.136392197,0.414636072,-0.016342163,-0.110351563,-0.823226929,35.74458313,23.30291748,-74.31030273,,,,,,,,0,38:06.7,0:17,60,0,38:11.9,1540931892,-0.165799621,0.179463502,0.418968236,-0.019958496,-0.081436157,-0.913970947,36.04022217,23.32241821,-74.21540833,,,,,,,,0,38:06.7,0:17,60,0,38:12.0,1540931892,-0.027909129,0.0280833,0.347000569,-0.018447876,-0.058914185,-1.017028809,36.48725891,23.15644836,-74.19728088,,,,,,,,0,38:06.7,0:17,60,0,38:12.0,1540931892,0.127128658,-0.217334451,0.218157102,-0.019805908,-0.035476685,-1.076446533,36.66381836,22.80969238,-74.66896057,,,,,,,,0,38:06.7,0:17,60,0,38:12.0,1540931892,0.210451245,-0.359225277,0.068041369,-0.039901733,-0.041870117,-1.077056885,36.66381836,22.80969238,-74.66896057,,,,,,,,0,38:06.7,0:17,60,0,38:12.0,1540931892,0.221998978,-0.293758386,-0.102147674,-0.068496704,-0.053924561,-1.056991577,36.29981995,23.19290161,-74.44030762,,,,,,,,0,38:06.7,0:17,60,0,38:12.0,1540931892,0.223246403,-0.087677655,-0.248601827,-0.07951355,-0.078582764,-1.072677612,36.21612549,22.9756012,-74.7651825,,,,,,,,0,38:06.7,0:17,60,0,38:12.0,1540931892,0.264645242,0.150063268,-0.294365587,-0.059585571,-0.12399292,-1.127761841,36.43507385,23.08772278,-74.74909973,,,,,,,,0,38:06.7,0:17,60,0,38:12.1,1540931892,0.328813842,0.362374465,-0.256638981,-0.042892456,-0.137634277,-1.225830078,36.5428009,22.44320679,-75.46975708,,,,,,,,0,38:06.7,0:17,60,0,38:12.1,1540931892,0.482276902,0.303717543,-0.29208672,-0.044540405,-0.080200195,-1.361022949,36.51063538,22.29457092,-75.32092285,,,,,,,,0,38:06.7,0:17,60,0,38:12.1,1540931892,0.666176165,-0.124696393,-0.439367518,-0.057250977,0.007904053,-1.45375061,36.39546204,21.92868042,-75.41886902,,,,,,,,0,38:06.7,0:17,60,0,38:12.1,1540931892,0.607857464,-0.391067097,-0.496437728,-0.088165283,0.001434326,-1.376586914,36.39546204,21.92868042,-75.41886902,,,,,,,,0,38:06.7,0:17,60,0,38:12.1,1540931892,0.190144642,-0.126374983,-0.22936608,-0.080978394,-0.078353882,-1.231918335,35.88594055,22.10678101,-75.51802063,,,,,,,,0,38:06.7,0:17,60,0,38:12.1,1540931892,-0.365388897,0.435216981,0.234072685,-0.060317993,-0.094955444,-1.189102173,36.50997925,22.29450989,-75.39901733,,,,,,,,0,38:06.7,0:17,60,0,38:12.2,1540931892,-0.220423984,0.271528448,0.247757072,-0.104629517,0.273712158,-1.439971924,37.02391052,22.42608643,-75.3661499,,,,,,,,0,38:06.7,0:17,60,0,38:12.2,1540931892,-0.220423984,0.271528448,0.247757072,-0.104629517,0.273712158,-1.439971924,37.43751526,22.11134338,-75.3553772,,,,,,,,0,38:06.7,0:17,60,0,38:12.2,1540931892,0.162632856,0.014855912,-0.048209607,-0.140853882,0.340744019,-1.334869385,37.13995361,22.09164429,-75.68453979,,,,,,,,0,38:06.7,0:17,60,0,38:12.2,1540931892,0.256636051,0.074603132,-0.338362073,-0.097869873,0.166763306,-0.901107788,37.13995361,22.09164429,-75.68453979,,,,,,,,0,38:06.7,0:17,60,0,38:12.2,1540931892,0.256636051,0.074603132,-0.338362073,-0.097869873,0.166763306,-0.901107788,37.03942871,22.34571838,-75.21218872,,,,,,,,0,38:06.7,0:17,60,0,38:12.2,1540931892,0.062344601,0.277441731,-0.286663725,-0.059387207,0.05821228,-0.782058716,36.92082214,22.67991638,-75.20620728,,,,,,,,0,38:06.7,0:17,60,0,38:12.3,1540931892,0.027362915,0.376062581,-0.251195213,-0.063537598,0.011520386,-0.789871216,37.09802246,22.33319092,-75.59977722,,,,,,,,0,38:06.7,0:17,60,0,38:12.3,1540931892,0.130880519,0.38497911,-0.295114468,-0.078369141,0.019332886,-0.796066284,37.43492126,22.11108398,-75.66777039,,,,,,,,0,38:06.7,0:17,60,0,38:12.3,1540931892,0.044491302,0.382739126,-0.339001765,-0.062454224,-0.050460815,-0.704345703,37.68946838,21.67181396,-75.90446472,,,,,,,,0,38:06.7,0:17,60,0,38:12.3,1540931892,-0.093593068,0.282316115,-0.319816885,-0.05682373,-0.083969116,-0.731704712,37.73693848,22.44047546,-75.40490723,,,,,,,,0,38:06.7,0:17,60,0,38:12.3,1540931892,-0.093593068,0.282316115,-0.319816885,-0.05682373,-0.083969116,-0.731704712,37.73693848,22.44047546,-75.40490723,,,,,,,,0,38:06.7,0:17,60,0,38:12.3,1540931892,-0.024794562,-0.031805334,-0.371622292,-0.072967529,-0.079849243,-0.7762146,37.32461548,22.75535583,-75.25947571,,,,,,,,0,38:06.7,0:17,60,0,38:12.4,1540931892,0.02020061,0.033882333,-0.406890535,-0.100006104,-0.107711792,-0.748001099,37.36785889,22.51394653,-75.18806458,,,,,,,,0,38:06.7,0:17,60,0,38:12.4,1540931892,0.02020061,0.033882333,-0.406890535,-0.100006104,-0.107711792,-0.748001099,37.37684631,22.43293762,-75.81506348,,,,,,,,0,38:06.7,0:17,60,0,38:12.4,1540931892,-0.041337586,0.250160841,-0.248121392,-0.07850647,-0.188491821,-0.793380737,37.57460022,22.31561279,-76.04284668,,,,,,,,0,38:06.7,0:17,60,0,38:12.4,1540931892,-0.011302456,0.208510067,-0.182857434,-0.072494507,-0.181121826,-0.876266479,37.61505127,22.77433777,-75.78939819,,,,,,,,0,38:06.7,0:17,60,0,38:12.4,1540931892,0.049632268,0.189465003,-0.164690947,-0.065124512,-0.154968262,-0.91166687,37.61505127,22.77433777,-75.78939819,,,,,,,,0,38:06.7,0:17,60,0,38:12.4,1540931892,0.076430326,0.242082408,-0.133577502,-0.05241394,-0.155395508,-0.93006897,37.55256653,22.78648376,-75.8704071,,,,,,,,0,38:06.7,0:17,60,0,38:12.5,1540931892,0.076430326,0.242082408,-0.133577502,-0.05241394,-0.155395508,-0.93006897,37.62075806,23.08415222,-75.69947815,,,,,,,,0,38:06.7,0:17,60,0,38:12.5,1540931892,-0.002804841,0.147125802,0.00018216,0.009246826,-0.192962646,-1.050796509,37.75032043,22.66917419,-76.09819031,,,,,,,,0,38:06.7,0:17,60,0,38:12.5,1540931892,-0.05907131,0.033471408,0.156401326,0.042984009,-0.213668823,-1.124694824,37.95378113,22.86166382,-76.23608398,,,,,,,,0,38:06.7,0:17,60,0,38:12.5,1540931893,-0.05907131,0.033471408,0.156401326,0.042984009,-0.213668823,-1.124694824,38.24681091,22.88090515,-76.45359802,,,,,,,,0,38:06.7,0:17,60,0,38:12.5,1540931893,-0.018819494,-0.016302807,0.33516415,-0.007873535,-0.13961792,-1.249389648,38.24681091,22.88090515,-76.45359802,,,,,,,,0,38:06.7,0:17,60,0,38:12.5,1540931893,0.018947592,-0.039327699,0.322276314,-0.009307861,-0.097198486,-1.279663086,38.06587219,22.91799927,-75.91564941,,,,,,,,0,38:06.7,0:17,60,0,38:12.6,1540931893,0.079492429,-0.102650745,0.32432535,-0.000228882,-0.089401245,-1.315307617,38.01885986,22.84977722,-75.84269714,,,,,,,,0,38:06.7,0:17,60,0,38:12.6,1540931893,0.186338186,-0.184651339,0.287789177,-0.00944519,-0.077545166,-1.323608398,37.92538452,23.0226593,-76.23162842,,,,,,,,0,38:06.7,0:17,60,0,38:12.6,1540931893,0.283443431,-0.182205759,0.254572101,-0.01272583,-0.068771362,-1.286087036,38.09689331,22.36613464,-76.71510315,,,,,,,,0,38:06.7,0:17,60,0,38:12.6,1540931893,0.334315666,-0.15670972,0.248166134,0.000183105,-0.063934326,-1.229934692,38.0415802,21.98782349,-77.04443359,,,,,,,,0,38:06.7,0:17,60,0,38:12.6,1540931893,0.291253683,-0.132612373,0.276048631,0.017959595,-0.071044922,-1.163345337,38.0415802,21.98782349,-77.04443359,,,,,,,,0,38:06.7,0:17,60,0,38:12.6,1540931893,0.157046609,-0.148878428,0.338170858,0.035827637,-0.074386597,-1.104629517,37.85084534,22.4151001,-76.57055664,,,,,,,,0,38:06.7,0:17,60,0,38:12.7,1540931893,-0.021275994,-0.143161687,0.418535473,0.036575317,-0.068145752,-1.053451538,37.5713501,22.31529236,-76.43333435,,,,,,,,0,38:06.7,0:17,60,0,38:12.7,1540931893,-0.17023192,-0.159264756,0.475307143,0.030715942,-0.051742554,-1.024124146,37.63693237,22.61271667,-76.5748291,,,,,,,,0,38:06.7,0:17,60,0,38:12.7,1540931893,-0.271678384,-0.18634005,0.457093518,0.02734375,-0.014083862,-0.990829468,37.58035278,22.23428345,-77.06033325,,,,,,,,0,38:06.7,0:17,60,0,38:12.7,1540931893,-0.352012106,-0.104319748,0.425088181,0.020736694,0.008285522,-0.960388184,37.78511047,22.42692566,-77.04203796,,,,,,,,0,38:06.7,0:17,60,0,38:12.7,1540931893,-0.337691223,-0.054458981,0.364107118,0.013748169,0.016845703,-0.970703125,37.82815552,22.88589478,-76.47619629,,,,,,,,0,38:06.7,0:17,60,0,38:12.7,1540931893,-0.280256426,-0.020098877,0.289175352,0.002639771,0.013183594,-0.940719604,37.82815552,22.88589478,-76.47619629,,,,,,,,0,38:06.7,0:17,60,0,38:12.8,1540931893,-0.249833539,0.054570035,0.20680378,-0.012054443,-0.009780884,-0.870498657,37.55747986,23.4054718,-76.47155762,,,,,,,,0,38:06.7,0:17,60,0,38:12.8,1540931893,-0.212972726,0.150637979,0.167291524,0.004837036,-0.033676147,-0.826644897,37.47750854,23.88894653,-75.83343506,,,,,,,,0,38:06.7,0:17,60,0,38:12.8,1540931893,-0.185251882,0.294191682,0.176028823,0.024215698,-0.042114258,-0.813018799,37.9549408,23.17105103,-76.69285583,,,,,,,,0,38:06.7,0:17,60,0,38:12.8,1540931893,-0.149984705,0.338284842,0.154657488,0.021911621,-0.037155151,-0.848571777,38.42382813,23.23458862,-76.35273743,,,,,,,,0,38:06.7,0:17,60,0,38:12.8,1540931893,-0.07065899,0.231907002,0.059200473,0.013458252,-0.021453857,-0.881530762,38.34014893,23.01728821,-76.6776123,,,,,,,,0,38:06.7,0:17,60,0,38:12.8,1540931893,0.049232527,0.063556606,-0.053476541,0.013900757,-0.040588379,-0.872467041,38.34014893,23.01728821,-76.6776123,,,,,,,,0,38:06.7,0:17,60,0,38:12.9,1540931893,0.145192879,-0.049779008,-0.071844097,0.038452148,-0.088378906,-0.823959351,37.93745422,23.6423645,-75.97372437,,,,,,,,0,38:06.7,0:17,60,0,38:12.9,1540931893,0.111154219,-0.059555206,0.02024615,0.051452637,-0.154815674,-0.764419556,37.91035461,23.80348206,-75.81307983,,,,,,,,0,38:06.7,0:17,60,0,38:12.9,1540931893,-0.04894171,-0.010950386,0.150989782,0.041900635,-0.199493408,-0.748275757,37.89945984,23.4931488,-76.527771,,,,,,,,0,38:06.7,0:17,60,0,38:12.9,1540931893,-0.186871617,0.016225043,0.177828054,-0.001861572,-0.181289673,-0.804168701,38.12818909,23.21508789,-76.44761658,,,,,,,,0,38:06.7,0:17,60,0,38:12.9,1540931893,-0.18044248,0.003591006,0.076079055,-0.025115967,-0.122543335,-0.877197266,38.19003296,23.20288086,-76.44470215,,,,,,,,0,38:06.7,0:17,60,0,38:12.9,1540931893,0.013284913,0.026516562,-0.17130837,-0.003875732,-0.121200562,-0.974487305,37.89486694,23.88383484,-75.96704102,,,,,,,,0,38:06.7,0:17,60,0,38:13.0,1540931893,0.013284913,0.026516562,-0.17130837,-0.003875732,-0.121200562,-0.974487305,37.89486694,23.88383484,-75.96704102,,,,,,,,0,38:06.7,0:17,60,0,38:13.0,1540931893,0.072514148,-0.072341309,-0.20571215,0.028274536,-0.15852356,-1.016662598,37.56448364,23.71543884,-76.22547913,,,,,,,,0,38:06.7,0:17,60,0,38:13.0,1540931893,-0.08624301,-0.382888529,-0.334560411,0.009185791,-0.182220459,-0.998397827,37.22186279,23.62773132,-76.24737549,,,,,,,,0,38:06.7,0:17,60,0,38:13.0,1540931893,-0.08624301,-0.382888529,-0.334560411,0.009185791,-0.182220459,-0.998397827,36.87026978,23.2298584,-76.74964905,,,,,,,,0,38:06.7,0:17,60,0,38:13.0,1540931893,-0.208217918,-0.370498971,-0.435176767,0.00088501,-0.170715332,-0.97706604,36.55079651,23.37179565,-76.29341125,,,,,,,,0,38:06.7,0:17,60,0,38:13.0,1540931893,-0.175959314,0.470554998,-0.402021211,0.014968872,-0.126449585,-1.075958252,36.51846313,23.92352295,-75.65014648,,,,,,,,0,38:06.7,0:17,60,0,38:13.1,1540931893,-0.175959314,0.470554998,-0.402021211,0.014968872,-0.126449585,-1.075958252,36.51846313,23.92352295,-75.65014648,,,,,,,,0,38:06.7,0:17,60,0,38:13.1,1540931893,0.06234833,0.511898177,-0.223193672,0.072555542,-0.020751953,-1.452178955,36.54995728,24.07211304,-75.8770752,,,,,,,,0,38:06.7,0:17,60,0,38:13.1,1540931893,0.06234833,0.511898177,-0.223193672,0.072555542,-0.020751953,-1.452178955,36.79142761,24.41384888,-75.46092224,,,,,,,,0,38:06.7,0:17,60,0,38:13.1,1540931893,-0.038583878,0.101881092,-0.230100314,0.052230835,0.020858765,-1.501525879,36.61964417,23.66952515,-76.04438782,,,,,,,,0,38:06.7,0:17,60,0,38:13.1,1540931893,-0.410202708,-0.05357854,-0.22270658,-0.038665771,0.064315796,-1.470596313,36.59059143,23.83044434,-76.11804199,,,,,,,,0,38:06.7,0:17,60,0,38:13.1,1540931893,-0.410202708,-0.05357854,-0.22270658,-0.038665771,0.064315796,-1.470596313,36.57901001,23.91119385,-75.80343628,,,,,,,,0,38:06.7,0:17,60,0,38:13.2,1540931893,-0.20979451,0.040077911,-0.322229442,-0.053024292,0.156921387,-1.517776489,36.57901001,23.91119385,-75.80343628,,,,,,,,0,38:06.7,0:17,60,0,38:13.2,1540931893,0.587306116,-0.259399613,-0.645120148,-0.032012939,0.161239624,-1.362640381,35.92767334,24.5849762,-75.26734924,,,,,,,,0,38:06.7,0:17,60,0,38:13.2,1540931893,0.587306116,-0.259399613,-0.645120148,-0.032012939,0.161239624,-1.362640381,35.4641571,23.82154846,-75.47712708,,,,,,,,0,38:06.7,0:17,60,0,38:13.2,1540931893,0.399075755,-0.294731772,-0.554095166,0.000671387,-0.009613037,-0.954666138,35.00245667,23.36755371,-76.06555176,,,,,,,,0,38:06.7,0:17,60,0,38:13.2,1540931893,0.277664105,-0.188855938,-0.50253397,-0.021636963,-0.05796814,-0.875106812,34.82673645,23.01400757,-76.01022339,,,,,,,,0,38:06.7,0:17,60,0,38:13.2,1540931893,0.277664105,-0.188855938,-0.50253397,-0.021636963,-0.05796814,-0.875106812,34.61236572,22.51115417,-76.58700562,,,,,,,,0,38:06.7,0:17,60,0,38:13.3,1540931893,0.416353811,0.207686618,-0.462456325,-0.037643433,-0.051452637,-0.816925049,34.61236572,22.51115417,-76.58700562,,,,,,,,0,38:06.7,0:17,60,0,38:13.3,1540931893,0.579419165,0.398472282,-0.41835491,-0.010391235,-0.05921936,-0.797515869,34.17492676,22.98735046,-76.04666138,,,,,,,,0,38:06.7,0:17,60,0,38:13.3,1540931893,0.579419165,0.398472282,-0.41835491,-0.010391235,-0.05921936,-0.797515869,34.07458496,22.54101563,-76.06874084,,,,,,,,0,38:06.7,0:17,60,0,38:13.3,1540931893,0.632177185,0.452254022,-0.199845472,0.052337646,-0.11416626,-0.752792358,34.60861206,22.20155334,-76.44262695,,,,,,,,0,38:06.7,0:17,60,0,38:13.3,1540931893,0.492175605,0.276957035,-0.115429924,0.054412842,-0.117889404,-0.738876343,34.89431763,20.90113831,-76.86579895,,,,,,,,0,38:06.7,0:17,60,0,38:13.3,1540931893,0.316142521,0.067660004,-0.09744107,0.03729248,-0.108306885,-0.723815918,34.98391724,20.72787476,-76.94543457,,,,,,,,0,38:06.7,0:17,60,0,38:13.4,1540931893,0.160159046,-0.037862161,-0.112525747,0.012863159,-0.105392456,-0.720458984,34.98780823,20.72825623,-76.47686768,,,,,,,,0,38:06.7,0:17,60,0,38:13.4,1540931893,0.088973016,-0.093431148,-0.110435431,-0.005905151,-0.114273071,-0.761550903,34.98780823,20.72825623,-76.47686768,,,,,,,,0,38:06.7,0:17,60,0,38:13.4,1540931893,0.084205958,-0.149646217,-0.10622018,-0.018920898,-0.119293213,-0.800216675,34.32685852,21.09185791,-76.49926758,,,,,,,,0,38:06.7,0:17,60,0,38:13.4,1540931893,0.084911163,-0.184294476,-0.098767057,-0.030288696,-0.14390564,-0.821029663,34.10006714,21.37005615,-76.34512329,,,,,,,,0,38:06.7,0:17,60,0,38:13.4,1540931893,0.042647329,-0.072671541,-0.051501274,-0.025527954,-0.17024231,-0.823898315,34.32897949,20.39163208,-76.75939941,,,,,,,,0,38:06.7,0:17,60,0,38:13.4,1540931893,0.050762247,0.132426484,0.031206123,-0.003448486,-0.192352295,-0.881912231,34.55708313,20.11352539,-76.75733948,,,,,,,,0,38:06.7,0:17,60,0,38:13.5,1540931893,0.162821941,0.282596279,0.076340578,0.013244629,-0.183258057,-0.986419678,34.66917419,20.1698761,-76.43692017,,,,,,,,0,38:06.7,0:17,60,0,38:13.5,1540931893,0.320330076,0.321151128,0.064570737,0.022277832,-0.173370361,-1.069610596,34.66917419,20.1698761,-76.43692017,,,,,,,,0,38:06.7,0:17,60,0,38:13.5,1540931893,0.391395997,0.253434931,0.058044928,0.057388306,-0.192840576,-1.094467163,34.43013,20.52877808,-76.04626465,,,,,,,,0,38:06.7,0:17,60,0,38:13.5,1540931894,0.345757672,0.131325533,0.139290782,0.10118103,-0.236694336,-1.091339111,34.90362549,20.20162964,-76.26686096,,,,,,,,0,38:06.7,0:17,60,0,38:13.5,1540931894,0.214974624,0.062582421,0.333063448,0.149124146,-0.269515991,-1.086074829,35.04866028,19.70629883,-76.51159668,,,,,,,,0,38:06.7,0:17,60,0,38:13.5,1540931894,0.043614589,0.060044163,0.567620296,0.171157837,-0.241348267,-1.092941284,35.57044983,19.44747925,-76.64897156,,,,,,,,0,38:06.7,0:17,60,0,38:13.6,1540931894,-0.046610379,0.028999427,0.703603165,0.137252808,-0.14541626,-1.134170532,35.56604004,19.13778687,-76.58267212,,,,,,,,0,38:06.7,0:17,60,0,38:13.6,1540931894,0.023997745,-0.106502475,0.609183186,0.061981201,-0.029144287,-1.198104858,35.56604004,19.13778687,-76.58267212,,,,,,,,0,38:06.7,0:17,60,0,38:13.6,1540931894,0.068231252,-0.269418958,0.401224393,0.028762817,0.031951904,-1.183380127,35.33906555,20.1164093,-75.93409729,,,,,,,,0,38:06.7,0:17,60,0,38:13.6,1540931894,-0.079538502,-0.307621738,0.301622701,0.030517578,0.00227356,-1.131958008,35.05891418,20.01654053,-75.875,,,,,,,,0,38:06.7,0:17,60,0,38:13.6,1540931894,-0.319338581,-0.109968579,0.406868697,0.045974731,-0.070327759,-1.121307373,35.19989014,20.22120667,-76.09390259,,,,,,,,0,38:06.7,0:17,60,0,38:13.6,1540931894,-0.451087291,0.170473202,0.647119383,0.067657471,-0.103363037,-1.183425903,35.6289978,19.82609558,-75.92913818,,,,,,,,0,38:06.7,0:17,60,0,38:13.7,1540931894,-0.3759723,0.224425917,0.769246091,0.062637329,-0.043914795,-1.285598755,36.15647888,19.87713623,-75.97662354,,,,,,,,0,38:06.7,0:17,60,0,38:13.7,1540931894,-0.195628623,-0.012727513,0.676816026,0.037902832,0.046539307,-1.32649231,36.17048645,20.49700928,-75.48440552,,,,,,,,0,38:06.7,0:17,60,0,38:13.7,1540931894,-0.092918223,-0.229306958,0.494477642,0.009552002,0.075790405,-1.231582642,36.17048645,20.49700928,-75.48440552,,,,,,,,0,38:06.7,0:17,60,0,38:13.7,1540931894,-0.133111183,-0.268482324,0.379856786,0.016433716,0.037246704,-1.088699341,35.75819397,20.81190491,-75.33898926,,,,,,,,0,38:06.7,0:17,60,0,38:13.7,1540931894,-0.181692301,-0.164224361,0.390705706,0.041381836,-0.046569824,-1.004699707,36.06016541,21.14126587,-75.0761261,,,,,,,,0,38:06.7,0:17,60,0,38:13.7,1540931894,-0.150184709,-0.055494152,0.443304469,0.050430298,-0.080505371,-0.972366333,36.12480164,20.42893982,-75.25527954,,,,,,,,0,38:06.7,0:17,60,0,38:13.8,1540931894,-0.079641566,0.041212152,0.43376902,0.041107178,-0.055603027,-0.939437866,36.52861023,20.50437927,-75.30853271,,,,,,,,0,38:06.7,0:17,60,0,38:13.8,1540931894,-0.025963157,0.128521491,0.380320709,0.037887573,-0.03352356,-0.893753052,36.83972168,20.44351196,-75.05970764,,,,,,,,0,38:06.7,0:17,60,0,38:13.8,1540931894,0.003221626,0.18799121,0.315064474,0.043380737,-0.030563354,-0.862609863,36.83972168,20.44351196,-75.05970764,,,,,,,,0,38:06.7,0:17,60,0,38:13.8,1540931894,0.039141277,0.187774961,0.282929707,0.058364868,-0.041030884,-0.85635376,36.60951233,21.42182922,-74.80163574,,,,,,,,0,38:06.7,0:17,60,0,38:13.8,1540931894,0.079057002,0.163737802,0.247552009,0.061096191,-0.051651001,-0.85333252,36.88523865,21.21199036,-74.79444885,,,,,,,,0,38:06.7,0:17,60,0,38:13.8,1540931894,0.123729932,0.082393943,0.196039549,0.055938721,-0.058731079,-0.842788696,37.18235779,20.53123474,-75.03779602,,,,,,,,0,38:06.7,0:17,60,0,38:13.9,1540931894,0.114315391,-0.159273545,0.065098576,0.058013916,-0.08757019,-0.776077271,37.65779114,20.20426941,-75.02412415,,,,,,,,0,38:06.7,0:17,60,0,38:13.9,1540931894,0.114315391,-0.159273545,0.065098576,0.058013916,-0.08757019,-0.776077271,37.45108032,20.01145935,-75.27670288,,,,,,,,0,38:06.7,0:17,60,0,38:13.9,1540931894,0.005731389,-0.159270083,0.054416104,0.053390503,-0.132888794,-0.743103027,37.45108032,20.01145935,-75.27670288,,,,,,,,0,38:06.7,0:17,60,0,38:13.9,1540931894,-0.128443993,0.038772163,0.079322519,0.038345337,-0.179489136,-0.803771973,37.31367493,20.81681824,-74.70779419,,,,,,,,0,38:06.7,0:17,60,0,38:13.9,1540931894,-0.128443993,0.038772163,0.079322519,0.038345337,-0.179489136,-0.803771973,37.27044678,21.05822754,-74.77922058,,,,,,,,0,38:06.7,0:17,60,0,38:13.9,1540931894,-0.093372292,0.171572023,0.054848069,0.036117554,-0.184539795,-0.854553223,37.44241333,21.10215759,-74.69017029,,,,,,,,0,38:06.7,0:17,60,0,38:14.0,1540931894,0.066662118,0.139866557,0.025857164,0.063598633,-0.218185425,-0.981567383,38.009552,19.90174866,-75.01623535,,,,,,,,0,38:06.7,0:17,60,0,38:14.0,1540931894,0.066662118,0.139866557,0.025857164,0.063598633,-0.218185425,-0.981567383,37.87611389,20.31636047,-75.08613586,,,,,,,,0,38:06.7,0:17,60,0,38:14.0,1540931894,-0.002435727,-0.153398079,-0.041952244,0.028869629,-0.238449097,-1.005218506,37.87611389,20.31636047,-75.08613586,,,,,,,,0,38:06.7,0:17,60,0,38:14.0,1540931894,-0.134737842,-0.221072731,-0.111609885,0.01109314,-0.241104126,-0.985656738,37.90560913,20.855896,-74.43997192,,,,,,,,0,38:06.7,0:17,60,0,38:14.0,1540931894,-0.134737842,-0.221072731,-0.111609885,0.01109314,-0.241104126,-0.985656738,37.34909058,20.96578979,-74.46615601,,,,,,,,0,38:06.7,0:17,60,0,38:14.0,1540931894,-0.258974839,0.117757527,-0.155067348,0.016784668,-0.217330933,-1.051116943,37.60783386,21.53660583,-74.27470398,,,,,,,,0,38:06.7,0:17,60,0,38:14.1,1540931894,-0.165939437,0.361333968,-0.161214457,0.032623291,-0.181686401,-1.142242432,37.94033813,21.00479126,-74.27641296,,,,,,,,0,38:06.7,0:17,60,0,38:14.1,1540931894,-0.165939437,0.361333968,-0.161214457,0.032623291,-0.181686401,-1.142242432,38.42085266,20.98760986,-74.25091553,,,,,,,,0,38:06.7,0:17,60,0,38:14.1,1540931894,0.020197147,0.287460809,-0.25665709,0.065246582,-0.127868652,-1.300445557,38.5670166,21.19276428,-73.84503174,,,,,,,,0,38:06.7,0:17,60,0,38:14.1,1540931894,-0.054708253,0.047267914,-0.328683081,0.08052063,-0.123046875,-1.290405273,38.5670166,21.19276428,-73.84503174,,,,,,,,0,38:06.7,0:17,60,0,38:14.1,1540931894,-0.241519949,0.025329858,-0.344728094,0.06413269,-0.149932861,-1.240081787,38.12942505,21.97817993,-73.91764832,,,,,,,,0,38:06.7,0:17,60,0,38:14.1,1540931894,-0.350856826,0.170211946,-0.339168745,0.040435791,-0.141815186,-1.240142822,38.24720764,22.34432983,-73.50732422,,,,,,,,0,38:06.7,0:17,60,0,38:14.2,1540931894,-0.270055187,0.335166813,-0.40002384,0.064743042,-0.068023682,-1.252655029,38.42259216,21.68817139,-73.5222168,,,,,,,,0,38:06.7,0:17,60,0,38:14.2,1540931894,0.016434367,0.29043556,-0.450478492,0.112167358,-0.028671265,-1.262054443,39.04602051,21.87582397,-73.48130798,,,,,,,,0,38:06.7,0:17,60,0,38:14.2,1540931894,0.303524464,-0.117949274,-0.444626196,0.172195435,-0.023620605,-1.230712891,38.66929626,21.63926697,-73.58865356,,,,,,,,0,38:06.7,0:17,60,0,38:14.2,1540931894,0.249946723,-0.506259733,-0.313376296,0.194259644,-0.053253174,-1.07170105,38.66929626,21.63926697,-73.58865356,,,,,,,,0,38:06.7,0:17,60,0,38:14.2,1540931894,-0.205851966,-0.590450511,-0.074568244,0.16078186,-0.083969116,-0.90473938,38.03330994,22.54194641,-73.51159668,,,,,,,,0,38:06.7,0:17,60,0,38:14.2,1540931894,-0.735189055,-0.444325791,0.087439568,0.075592041,-0.04864502,-0.867980957,37.74095154,22.52276611,-73.2159729,,,,,,,,0,38:06.7,0:17,60,0,38:14.3,1540931894,-0.95261938,-0.248605022,0.081308172,-0.014526367,0.053573608,-0.961288452,37.55392456,23.25965881,-72.88647461,,,,,,,,0,38:06.7,0:17,60,0,38:14.3,1540931894,-0.803485821,-0.121871045,-0.05242912,-0.067550659,0.145782471,-1.062545776,37.89915466,23.34762573,-72.5521698,,,,,,,,0,38:06.7,0:17,60,0,38:14.3,1540931894,-0.439255399,-0.002498311,-0.214069682,-0.098251343,0.167724609,-1.108596802,38.03703308,23.24272156,-72.54858398,,,,,,,,0,38:06.7,0:17,60,0,38:14.3,1540931894,-0.035621377,0.067476779,-0.289040863,-0.077789307,0.14151001,-1.104110718,38.03703308,23.24272156,-72.54858398,,,,,,,,0,38:06.7,0:17,60,0,38:14.3,1540931894,0.208850153,0.05531865,-0.269839205,-0.034515381,0.087051392,-1.041778564,37.74691772,24.23342896,-72.05911255,,,,,,,,0,38:06.7,0:17,60,0,38:14.3,1540931894,0.248375991,0.009327455,-0.223858397,-0.018417358,0.034393311,-0.948516846,37.26446533,24.25042725,-72.31890869,,,,,,,,0,38:06.7,0:17,60,0,38:14.4,1540931894,0.16706116,0.005622998,-0.184221505,-0.030990601,0.004821777,-0.877441406,37.48278809,24.36251831,-72.38092041,,,,,,,,0,38:06.7,0:17,60,0,38:14.4,1540931894,0.100255498,-0.046507581,-0.2410254,-0.055480957,-0.002258301,-0.850326538,37.74841309,23.53318787,-72.39735413,,,,,,,,0,38:06.7,0:17,60,0,38:14.4,1540931894,0.100913565,-0.099311408,-0.291421196,-0.049209595,-0.021484375,-0.842300415,37.68836975,23.85482788,-72.77894592,,,,,,,,0,38:06.7,0:17,60,0,38:14.4,1540931894,0.134833982,-0.07486279,-0.265698522,-0.021911621,-0.065460205,-0.828460693,37.67105103,23.62574768,-72.55422974,,,,,,,,0,38:06.7,0:17,60,0,38:14.4,1540931894,0.167265691,0.032562737,-0.159558503,-0.006637573,-0.109634399,-0.827728271,37.67105103,23.62574768,-72.55422974,,,,,,,,0,38:06.7,0:17,60,0,38:14.4,1540931894,0.196711731,0.159468754,-0.049110288,0.001266479,-0.128219604,-0.851852417,37.46484375,24.13336182,-72.23431396,,,,,,,,0,38:06.7,0:17,60,0,38:14.5,1540931894,0.273277346,0.247070243,0.039860864,0.015472412,-0.135131836,-0.891494751,37.60710144,24.33816528,-72.29701233,,,,,,,,0,38:06.7,0:17,60,0,38:14.5,1540931894,0.346285244,0.290415586,0.114857078,0.008163452,-0.150878906,-0.922058105,37.92755127,23.18664551,-72.55662537,,,,,,,,0,38:06.7,0:17,60,0,38:14.5,1540931894,0.371636673,0.301950003,0.144849332,-0.002334595,-0.152862549,-0.933807373,38.9291687,22.91059875,-72.74659729,,,,,,,,0,38:06.7,0:17,60,0,38:14.5,1540931895,0.320129274,0.208352941,0.142604553,-0.006896973,-0.158279419,-0.951522827,38.73794556,22.63739014,-72.8452301,,,,,,,,0,38:06.7,0:17,60,0,38:14.5,1540931895,0.204964867,0.072136778,0.131755634,-0.003234863,-0.1640625,-0.980117798,38.73794556,22.63739014,-72.8452301,,,,,,,,0,38:06.7,0:17,60,0,38:14.5,1540931895,0.093731819,-0.094393614,0.118726651,0.012985229,-0.165496826,-1.012496948,38.61524963,23.67158508,-72.81340027,,,,,,,,0,38:06.7,0:17,60,0,38:14.6,1540931895,0.040049415,-0.193403552,0.12290089,0.013412476,-0.17640686,-1.037185669,38.38536072,23.64024353,-72.43676758,,,,,,,,0,38:06.7,0:17,60,0,38:14.6,1540931895,0.069736471,-0.174258087,0.132555115,-0.003997803,-0.174163818,-1.044128418,38.426651,23.39866638,-72.59963989,,,,,,,,0,38:06.7,0:17,60,0,38:14.6,1540931895,0.130792102,-0.078520908,0.117666446,-0.02696228,-0.157745361,-1.0443573,39.09477234,22.6446228,-72.82556152,,,,,,,,0,38:06.7,0:17,60,0,38:14.6,1540931895,0.162081582,-0.011637215,0.086686426,-0.038085938,-0.147613525,-1.055603027,39.08972168,22.33486938,-72.83735657,,,,,,,,0,38:06.7,0:17,60,0,38:14.6,1540931895,0.129976909,0.043922983,0.064274594,-0.038040161,-0.143661499,-1.06918335,39.08972168,22.33486938,-72.83735657,,,,,,,,0,38:06.7,0:17,60,0,38:14.6,1540931895,0.068569474,0.101218764,-0.051293015,-0.037033081,-0.12121582,-1.130187988,38.90583801,23.38134766,-72.73034668,,,,,,,,0,38:06.7,0:17,60,0,38:14.7,1540931895,0.068569474,0.101218764,-0.051293015,-0.037033081,-0.12121582,-1.130187988,38.64117432,23.20109558,-72.51725769,,,,,,,,0,38:06.7,0:17,60,0,38:14.7,1540931895,0.128868501,0.107378123,-0.113409916,-0.026657104,-0.105178833,-1.163375854,38.96960449,23.36932373,-72.4931488,,,,,,,,0,38:06.7,0:17,60,0,38:14.7,1540931895,0.135315481,0.209343104,-0.202167216,0.001022339,-0.102127075,-1.132202148,39.36741638,22.12524414,-72.59590149,,,,,,,,0,38:06.7,0:17,60,0,38:14.7,1540931895,0.135315481,0.209343104,-0.202167216,0.001022339,-0.102127075,-1.132202148,39.83746338,22.49816895,-72.71255493,,,,,,,,0,38:06.7,0:17,60,0,38:14.7,1540931895,0.002743589,0.252567007,-0.144255447,0.026077271,-0.124237061,-1.118530273,39.85540771,22.72729492,-72.85914612,,,,,,,,0,38:06.7,0:17,60,0,38:14.7,1540931895,-0.114051472,0.308327475,-0.013513412,0.036880493,-0.075561523,-1.212387085,39.85540771,22.72729492,-72.85914612,,,,,,,,0,38:06.7,0:17,60,0,38:14.8,1540931895,-0.114051472,0.308327475,-0.013513412,0.036880493,-0.075561523,-1.212387085,39.39022827,23.36453247,-72.23626709,,,,,,,,0,38:06.7,0:17,60,0,38:14.8,1540931895,0.369782048,-0.100810501,-0.291487775,-0.019622803,0.028137207,-1.248809814,39.79972839,23.74978638,-72.199646,,,,,,,,0,38:06.7,0:17,60,0,38:14.8,1540931895,0.278096868,-0.24524944,-0.466194338,-0.00769043,-0.034637451,-1.041397095,39.96047974,22.47366333,-72.78482056,,,,,,,,0,38:06.7,0:17,60,0,38:14.8,1540931895,0.180264847,-0.222652518,-0.472568082,-0.003417969,-0.064331055,-1.005233765,39.46578979,22.5713501,-72.80810547,,,,,,,,0,38:06.7,0:17,60,0,38:14.8,1540931895,0.139850046,-0.157222378,-0.508886941,-0.017486572,-0.058059692,-0.984024048,39.46578979,22.5713501,-72.80810547,,,,,,,,0,38:06.7,0:17,60,0,38:14.9,1540931895,0.147015813,-0.081377148,-0.559125611,-0.015380859,-0.045135498,-0.976730347,38.87173462,23.23249817,-72.8157959,,,,,,,,0,38:06.7,0:17,60,0,38:14.9,1540931895,0.157513994,0.015999739,-0.592204735,-0.009292603,-0.04649353,-0.969345093,38.51622009,23.22540283,-72.67929077,,,,,,,,0,38:06.7,0:17,60,0,38:14.9,1540931895,0.20422797,0.037389184,-0.643590961,-0.001815796,-0.046325684,-0.988830566,38.4956665,22.9960022,-72.845047,,,,,,,,0,38:06.7,0:17,60,0,38:14.9,1540931895,0.283925196,-0.026869431,-0.724004044,-0.00227356,-0.044998169,-1.000030518,38.79344177,22.31530762,-73.0103302,,,,,,,,0,38:06.7,0:17,60,0,38:14.9,1540931895,0.390096641,-0.197238504,-0.839892831,-0.009857178,-0.05368042,-0.994232178,38.3387146,22.17126465,-73.35266113,,,,,,,,0,38:06.7,0:17,60,0,38:14.9,1540931895,0.444683454,-0.35208987,-0.925765928,-0.013015747,-0.079696655,-0.925949097,38.3387146,22.17126465,-73.35266113,,,,,,,,0,38:06.7,0:17,60,0,38:15.0,1540931895,0.376927309,-0.390206097,-0.968631103,-0.026809692,-0.123123169,-0.828414917,37.40141296,22.74462891,-73.46037292,,,,,,,,0,38:06.7,0:17,60,0,38:15.0,1540931895,0.225842985,-0.316206704,-0.988849822,-0.042388916,-0.15512085,-0.771621704,36.56669617,22.75483704,-73.19316101,,,,,,,,0,38:06.7,0:17,60,0,38:15.0,1540931895,0.121070765,-0.255549748,-1.029442523,-0.066452026,-0.157470703,-0.789276123,36.36439514,22.8717041,-73.51205444,,,,,,,,0,38:06.7,0:17,60,0,38:15.0,1540931895,0.132849128,-0.251087888,-1.091549836,-0.073745728,-0.130218506,-0.831604004,36.25900269,22.11561584,-73.54592896,,,,,,,,0,38:06.7,0:17,60,0,38:15.0,1540931895,0.171021281,-0.244690442,-1.160086287,-0.086914063,-0.116821289,-0.841796875,35.83840942,22.1204071,-73.80279541,,,,,,,,0,38:06.7,0:17,60,0,38:15.0,1540931895,0.135656899,-0.206280469,-1.21357348,-0.094177246,-0.12008667,-0.831771851,35.08476257,22.34768677,-73.52310181,,,,,,,,0,38:06.7,0:17,60,0,38:15.1,1540931895,0.039611592,-0.22998713,-1.275689582,-0.104827881,-0.117828369,-0.848892212,35.08476257,22.34768677,-73.52310181,,,,,,,,0,38:06.7,0:17,60,0,38:15.1,1540931895,-0.047169909,-0.282887629,-1.362473746,-0.124008179,-0.106811523,-0.87928772,34.23391724,22.4382019,-73.48796082,,,,,,,,0,38:06.7,0:17,60,0,38:15.1,1540931895,-0.104074205,-0.302485032,-1.464216087,-0.144622803,-0.093673706,-0.900405884,33.46725464,23.05535889,-73.66281128,,,,,,,,0,38:06.7,0:17,60,0,38:15.1,1540931895,-0.089148519,-0.209027253,-1.609741596,-0.173538208,-0.085800171,-0.906188965,33.39726257,22.44827271,-73.45503235,,,,,,,,0,38:06.7,0:17,60,0,38:15.1,1540931895,0.06830662,0.017109212,-1.736933104,-0.191482544,-0.103668213,-0.935577393,33.24325562,22.63345337,-73.69070435,,,,,,,,0,38:06.7,0:17,60,0,38:15.1,1540931895,0.287751094,0.350451759,-1.774054906,-0.203414917,-0.154144287,-0.962722778,32.6907959,22.04335022,-73.74272156,,,,,,,,0,38:06.7,0:17,60,0,38:15.2,1540931895,0.474903141,0.744335948,-1.726496176,-0.234222412,-0.206863403,-0.995346069,32.6907959,22.04335022,-73.74272156,,,,,,,,0,38:06.7,0:17,60,0,38:15.2,1540931895,0.650515179,0.915677873,-1.718831065,-0.223297119,-0.179580688,-1.077484131,32.16578674,22.30183411,-73.99581909,,,,,,,,0,38:06.7,0:17,60,0,38:15.2,1540931895,0.800469258,0.785212275,-1.910712355,-0.211303711,-0.074859619,-1.181182861,32.12026978,21.53337097,-74.26109314,,,,,,,,0,38:06.7,0:17,60,0,38:15.2,1540931895,0.770176334,0.524983087,-2.218363387,-0.191177368,0.017349243,-1.250228882,32.29060364,20.56745911,-74.28779602,,,,,,,,0,38:06.7,0:17,60,0,38:15.2,1540931895,0.660334254,0.105456385,-2.530475214,-0.153289795,0.057678223,-1.319503784,32.35198975,19.8547821,-74.85739136,,,,,,,,0,38:06.7,0:17,60,0,38:15.2,1540931895,0.548859657,-0.234538206,-2.711843408,-0.049087524,0.08102417,-1.320648193,31.34941101,19.12107849,-74.70509338,,,,,,,,0,38:06.7,0:17,60,0,38:15.3,1540931895,0.498159728,-0.360475631,-2.743041542,0.023101807,0.068084717,-1.284423828,29.64118958,19.30148315,-75.41575623,,,,,,,,0,38:06.7,0:17,60,0,38:15.3,1540931895,0.488541189,-0.363803784,-2.699138,0.040802002,0.052246094,-1.258117676,29.64118958,19.30148315,-75.41575623,,,,,,,,0,38:06.7,0:17,60,0,38:15.3,1540931895,0.430837679,-0.226911445,-2.712876449,0.018722534,0.095733643,-1.216430664,28.46728516,18.52391052,-75.2743988,,,,,,,,0,38:06.7,0:17,60,0,38:15.3,1540931895,0.3721733,-0.09303194,-2.782303194,-0.006912231,0.15196228,-1.214355469,28.05906677,18.13877869,-75.15481567,,,,,,,,0,38:06.7,0:17,60,0,38:15.3,1540931895,0.393483116,-0.092838062,-2.881898228,-0.006622314,0.207977295,-1.239624023,28.25520325,17.01164246,-75.49835205,,,,,,,,0,38:06.7,0:17,60,0,38:15.3,1540931895,0.505599535,-0.305404123,-3.008549115,0.001922607,0.247253418,-1.255142212,27.34463501,16.41416931,-75.72624207,,,,,,,,0,38:06.7,0:17,60,0,38:15.4,1540931895,0.600173712,-0.588102135,-3.13635315,0.006759644,0.271789551,-1.20274353,25.50215149,15.69018555,-75.9315033,,,,,,,,0,38:06.7,0:17,60,0,38:15.4,1540931895,0.632849899,-0.842015637,-3.281240565,-0.002105713,0.271438599,-1.1224823,25.50215149,15.69018555,-75.9315033,,,,,,,,0,38:06.7,0:17,60,0,38:15.4,1540931895,0.59252458,-1.143515299,-3.522546662,-0.052093506,0.21585083,-0.965072632,23.85508728,14.23013306,-75.45097351,,,,,,,,0,38:06.7,0:17,60,0,38:15.4,1540931895,0.510680314,-1.114385111,-3.578175836,-0.078857422,0.184234619,-0.889556885,22.12271118,13.56225586,-75.57008362,,,,,,,,0,38:06.7,0:17,60,0,38:15.4,1540931895,0.364172099,-0.999392744,-3.582282164,-0.080703735,0.15725708,-0.841659546,21.83850098,12.14306641,-75.32614136,,,,,,,,0,38:06.7,0:17,60,0,38:15.4,1540931895,0.21289869,-0.815414386,-3.515625373,-0.065582275,0.119277954,-0.847473145,20.83329773,11.40910339,-75.48620605,,,,,,,,0,38:06.7,0:17,60,0,38:15.5,1540931895,0.134911746,-0.674523577,-3.398708873,-0.044876099,0.09413147,-0.896560669,19.87019348,10.12434387,-75.11807251,,,,,,,,0,38:06.7,0:17,60,0,38:15.5,1540931895,0.153251072,-0.60911128,-3.30118418,-0.037368774,0.102157593,-0.95274353,19.87019348,10.12434387,-75.11807251,,,,,,,,0,38:06.7,0:17,60,0,38:15.5,1540931895,0.174299632,-0.599814451,-3.242280383,-0.034576416,0.116790771,-0.974700928,18.72029114,8.876098633,-74.91487122,,,,,,,,0,38:06.7,0:17,60,0,38:15.5,1540931896,0.174299632,-0.599814451,-3.242280383,-0.034576416,0.116790771,-0.974700928,17.74038696,7.671615601,-74.85690308,,,,,,,,0,38:06.7,0:17,60,0,38:15.5,1540931896,0.158830395,-0.546958427,-3.16939286,-0.029373169,0.117828369,-0.977264404,17.96162415,6.77432251,-74.48797607,,,,,,,,0,38:06.7,0:17,60,0,38:15.5,1540931896,0.133919186,-0.450342671,-2.927252927,-0.026168823,0.105377197,-1.017974854,17.6700592,6.054794312,-74.60868835,,,,,,,,0,38:06.7,0:17,60,0,38:15.6,1540931896,0.133919186,-0.450342671,-2.927252927,-0.026168823,0.105377197,-1.017974854,17.54167175,4.75982666,-74.50778198,,,,,,,,0,38:06.7,0:17,60,0,38:15.6,1540931896,0.029333122,-0.675652224,-2.86325397,-0.039337158,0.138687134,-1.036636353,17.54167175,4.75982666,-74.50778198,,,,,,,,0,38:06.7,0:17,60,0,38:15.6,1540931896,0.029333122,-0.675652224,-2.86325397,-0.039337158,0.138687134,-1.036636353,16.53662109,3.71661377,-74.05487061,,,,,,,,0,38:06.7,0:17,60,0,38:15.6,1540931896,-0.106836436,-0.685259844,-2.838603218,-0.044754028,0.127319336,-1.003967285,16.11456299,2.402328491,-73.81454468,,,,,,,,0,38:06.7,0:17,60,0,38:15.6,1540931896,-0.137006589,-0.660857832,-2.917809624,-0.062469482,0.156097412,-1.075256348,16.08518982,1.55355835,-73.8477478,,,,,,,,0,38:06.7,0:17,60,0,38:15.6,1540931896,-0.137006589,-0.660857832,-2.917809624,-0.062469482,0.156097412,-1.075256348,16.27984619,1.126663208,-73.8530426,,,,,,,,0,38:06.7,0:17,60,0,38:15.7,1540931896,-0.08731653,-0.652587651,-2.941370344,-0.041488647,0.135543823,-1.091629028,16.45147705,0.160888672,-73.723526,,,,,,,,0,38:06.7,0:17,60,0,38:15.7,1540931896,-0.096345445,-0.584706605,-2.854544634,0.006164551,0.087387085,-1.067810059,15.81304932,-1.265258789,-73.18688965,,,,,,,,0,38:06.7,0:17,60,0,38:15.7,1540931896,-0.096345445,-0.584706605,-2.854544634,0.006164551,0.087387085,-1.067810059,15.81304932,-1.265258789,-73.18688965,,,,,,,,0,38:06.7,0:17,60,0,38:15.7,1540931896,-0.302580906,-0.509696009,-2.724828183,0.040054321,0.052856445,-1.035934448,15.96298218,-2.769805908,-72.76638794,,,,,,,,0,38:06.7,0:17,60,0,38:15.7,1540931896,-0.334343097,-0.496870226,-2.610222508,0.058944702,0.03678894,-1.089431763,16.03083801,-3.481811523,-72.55505371,,,,,,,,0,38:06.7,0:17,60,0,38:15.7,1540931896,-0.334343097,-0.496870226,-2.610222508,0.058944702,0.03678894,-1.089431763,16.66210938,-3.684555054,-72.68435669,,,,,,,,0,38:06.7,0:17,60,0,38:15.8,1540931896,-0.221048229,-0.523434459,-2.460361906,0.099075317,0.066390991,-1.115203857,16.51853943,-3.889465332,-72.77786255,,,,,,,,0,38:06.7,0:17,60,0,38:15.8,1540931896,-0.143826412,-0.604270452,-2.446559008,0.12286377,0.0675354,-1.107910156,16.71922302,-5.016159058,-72.57473755,,,,,,,,0,38:06.7,0:17,60,0,38:15.8,1540931896,-0.143826412,-0.604270452,-2.446559008,0.12286377,0.0675354,-1.107910156,16.71922302,-5.016159058,-72.57473755,,,,,,,,0,38:06.7,0:17,60,0,38:15.8,1540931896,-0.150005478,-0.90087629,-2.37089221,0.155639648,0.003417969,-1.047653198,16.93228149,-6.532775879,-71.99511719,,,,,,,,0,38:06.7,0:17,60,0,38:15.8,1540931896,-0.232576521,-0.81800138,-2.340785973,0.151412964,-0.010314941,-0.996643066,16.74645996,-7.505828857,-71.96340942,,,,,,,,0,38:06.7,0:17,60,0,38:15.8,1540931896,-0.215914187,-0.619162317,-2.336261262,0.169540405,-0.014389038,-0.992156982,17.42926025,-7.639907837,-71.61901855,,,,,,,,0,38:06.7,0:17,60,0,38:15.9,1540931896,-0.077931018,-0.403288875,-2.28462683,0.206863403,-0.032440186,-1.020584106,17.51950073,-7.813095093,-71.62054443,,,,,,,,0,38:06.7,0:17,60,0,38:15.9,1540931896,0.034339598,-0.204907076,-2.124850746,0.242507935,-0.061248779,-1.032318115,18.33248901,-8.362091064,-71.59677124,,,,,,,,0,38:06.7,0:17,60,0,38:15.9,1540931896,0.027169303,-0.138553885,-1.930941194,0.251174927,-0.085281372,-1.048538208,18.49221802,-10.25680542,-71.11221313,,,,,,,,0,38:06.7,0:17,60,0,38:15.9,1540931896,-0.109982161,-0.219005052,-1.769307289,0.263900757,-0.075302124,-1.05960083,18.49221802,-10.25680542,-71.11221313,,,,,,,,0,38:06.7,0:17,60,0,38:15.9,1540931896,-0.265469756,-0.357421518,-1.674133901,0.252700806,-0.047180176,-1.064254761,18.89163208,-10.49107361,-71.09922791,,,,,,,,0,38:06.7,0:17,60,0,38:15.9,1540931896,-0.329792287,-0.460754299,-1.645332613,0.220733643,-0.01385498,-1.074447632,19.55062866,-10.8548584,-71.31106567,,,,,,,,0,38:06.7,0:17,60,0,38:16.0,1540931896,-0.277585275,-0.409256753,-1.665628031,0.171859741,0.021682739,-1.070968628,19.41586304,-10.44035339,-71.53715515,,,,,,,,0,38:06.7,0:17,60,0,38:16.0,1540931896,-0.141471378,-0.296874285,-1.695506302,0.139266968,0.036132813,-1.058959961,20.11026001,-10.65516663,-71.50738525,,,,,,,,0,38:06.7,0:17,60,0,38:16.0,1540931896,-0.02506514,-0.256830462,-1.710476995,0.143936157,0.039535522,-1.039337158,20.26133728,-11.8503418,-71.5436554,,,,,,,,0,38:06.7,0:17,60,0,38:16.0,1540931896,-0.023032349,-0.262300861,-1.699775615,0.154510498,0.021377563,-0.996200562,20.26133728,-11.8503418,-71.5436554,,,,,,,,0,38:06.7,0:17,60,0,38:16.0,1540931896,-0.094588025,-0.23478801,-1.646181363,0.158935547,-0.012237549,-0.958084106,21.18267822,-12.65263367,-71.05508423,,,,,,,,0,38:06.7,0:17,60,0,38:16.0,1540931896,-0.148651793,-0.140421826,-1.582871099,0.141586304,-0.027481079,-0.949310303,21.42300415,-13.01144409,-71.28952026,,,,,,,,0,38:06.7,0:17,60,0,38:16.1,1540931896,-0.117675235,0.011770639,-1.578407375,0.110366821,-0.004364014,-0.954818726,21.99029541,-12.50175476,-71.16162109,,,,,,,,0,38:06.7,0:17,60,0,38:16.1,1540931896,-0.035488752,0.114824854,-1.580441764,0.10534668,-0.005859375,-0.977340698,22.4959259,-12.68023682,-71.53105164,,,,,,,,0,38:06.7,0:17,60,0,38:16.1,1540931896,0.037174,0.112908709,-1.546194045,0.118255615,-0.03729248,-1.007049561,23.26390076,-13.29727173,-71.20001221,,,,,,,,0,38:06.7,0:17,60,0,38:16.1,1540931896,0.034051444,0.025019866,-1.469199661,0.133346558,-0.07711792,-1.013534546,23.26390076,-13.29727173,-71.20001221,,,,,,,,0,38:06.7,0:17,60,0,38:16.1,1540931896,-0.033605897,-0.080714021,-1.372936241,0.131149292,-0.112228394,-1.020278931,24.19615173,-14.18037415,-71.10412598,,,,,,,,0,38:06.7,0:17,60,0,38:16.1,1540931896,-0.10560206,-0.204695089,-1.301324106,0.106750488,-0.113677979,-1.029541016,24.47975159,-14.78057861,-71.2671814,,,,,,,,0,38:06.7,0:17,60,0,38:16.2,1540931896,-0.143055426,-0.253157963,-1.263894708,0.084793091,-0.098449707,-1.024963379,24.91487122,-13.85617065,-71.052948,,,,,,,,0,38:06.7,0:17,60,0,38:16.2,1540931896,-0.125968585,-0.218916103,-1.212455219,0.066497803,-0.095199585,-1.023712158,24.8775177,-14.00534058,-71.52890015,,,,,,,,0,38:06.7,0:17,60,0,38:16.2,1540931896,-0.091325919,-0.106013785,-1.128797073,0.064163208,-0.10269165,-1.031204224,25.59115601,-13.99087524,-71.48953247,,,,,,,,0,38:06.7,0:17,60,0,38:16.2,1540931896,-0.035387019,0.027256122,-1.050473239,0.056091309,-0.093490601,-1.051330566,25.59115601,-13.99087524,-71.48953247,,,,,,,,0,38:06.7,0:17,60,0,38:16.2,1540931896,0.134441698,0.048091363,-0.988378443,0.040924072,-0.054458618,-1.127563477,26.02435303,-15.08598328,-71.35064697,,,,,,,,0,38:06.7,0:17,60,0,38:16.2,1540931896,0.134441698,0.048091363,-0.988378443,0.040924072,-0.054458618,-1.127563477,26.74905396,-15.46156311,-71.09101868,,,,,,,,0,38:06.7,0:17,60,0,38:16.3,1540931896,0.225750839,-0.107433783,-0.99394658,0.03352356,-0.049789429,-1.13873291,27.01371765,-15.28135681,-71.30409241,,,,,,,,0,38:06.7,0:17,60,0,38:16.3,1540931896,0.265564831,-0.249408232,-1.018761116,0.026229858,-0.050628662,-1.107513428,26.98532104,-15.12036133,-71.29963684,,,,,,,,0,38:06.7,0:17,60,0,38:16.3,1540931896,0.313882297,-0.395593671,-1.092842534,0.006011963,-0.014007568,-1.081451416,27.37182617,-15.27400208,-71.1282196,,,,,,,,0,38:06.7,0:17,60,0,38:16.3,1540931896,0.322845698,-0.455086826,-1.113264453,-0.007797241,-0.033920288,-1.018081665,27.35731506,-16.20320129,-71.08554077,,,,,,,,0,38:06.7,0:17,60,0,38:16.3,1540931896,0.365704748,-0.484860168,-1.073689612,-0.011291504,-0.085403442,-0.982315063,27.35731506,-16.20320129,-71.08554077,,,,,,,,0,38:06.7,0:17,60,0,38:16.3,1540931896,0.418187131,-0.485783752,-0.968758935,-0.019592285,-0.111480713,-0.931884766,28.00422668,-16.79553223,-70.44793701,,,,,,,,0,38:06.7,0:17,60,0,38:16.4,1540931896,0.218068951,-0.178881335,-0.689908126,-0.087783813,-0.170272827,-0.806137085,28.21434021,-17.30278015,-70.29927063,,,,,,,,0,38:06.7,0:17,60,0,38:16.4,1540931896,0.218068951,-0.178881335,-0.689908126,-0.087783813,-0.170272827,-0.806137085,28.16394043,-16.67092896,-70.12239075,,,,,,,,0,38:06.7,0:17,60,0,38:16.4,1540931896,0.014558703,0.181617999,-0.552344137,-0.119354248,-0.190216064,-0.7865448,28.55877686,-16.90562439,-70.65605164,,,,,,,,0,38:06.7,0:17,60,0,38:16.4,1540931896,-0.024584173,0.481053179,-0.145037883,-0.07194519,-0.162811279,-1.014846802,28.93112183,-16.97874451,-70.48240662,,,,,,,,0,38:06.7,0:17,60,0,38:16.4,1540931896,-0.024584173,0.481053179,-0.145037883,-0.07194519,-0.162811279,-1.014846802,28.93112183,-16.97874451,-70.48240662,,,,,,,,0,38:06.7,0:17,60,0,38:16.4,1540931896,0.107499829,0.205701231,-0.03618144,-0.059661865,-0.096878052,-1.096481323,29.67002869,-17.43486023,-70.22502136,,,,,,,,0,38:06.7,0:17,60,0,38:16.5,1540931896,0.210777482,-0.559077674,0.005684784,-0.046051025,-0.040939331,-1.023971558,29.4324646,-17.7762146,-70.17259216,,,,,,,,0,38:06.7,0:17,60,0,38:16.5,1540931896,0.138627122,-0.716287269,0.002295645,-0.081085205,-0.05380249,-0.907867432,28.94856262,-17.05891418,-70.09414673,,,,,,,,0,38:06.7,0:17,60,0,38:16.5,1540931896,0.10907136,-0.619568981,-0.040412404,-0.102127075,-0.060821533,-0.846557617,28.19038391,-16.83209229,-70.36112976,,,,,,,,0,38:06.7,0:17,60,0,38:16.5,1540931897,0.144797933,-0.524695998,-0.04887087,-0.097595215,-0.072753906,-0.858596802,27.95916748,-16.86354065,-70.14068604,,,,,,,,0,38:06.7,0:17,60,0,38:16.5,1540931897,0.144797933,-0.524695998,-0.04887087,-0.097595215,-0.072753906,-0.858596802,27.95916748,-16.86354065,-70.14068604,,,,,,,,0,38:06.7,0:17,60,0,38:16.5,1540931897,-0.171715034,-0.237860765,-0.152314439,-0.127456665,-0.103729248,-0.816177368,28.27503967,-17.62437439,-69.83958435,,,,,,,,0,38:06.7,0:17,60,0,38:16.6,1540931897,-0.395693007,-0.192120974,-0.233589588,-0.12461853,-0.115783691,-0.837875366,28.34191895,-17.326828,-69.82487488,,,,,,,,0,38:06.7,0:17,60,0,38:16.6,1540931897,-0.395693007,-0.192120974,-0.233589588,-0.12461853,-0.115783691,-0.837875366,28.26704407,-16.92474365,-70.28233337,,,,,,,,0,38:06.7,0:17,60,0,38:16.6,1540931897,-0.424779254,0.144134007,-0.40236396,-0.135559082,-0.096740723,-0.982513428,28.05755615,-16.41743469,-70.35290527,,,,,,,,0,38:06.7,0:17,60,0,38:16.6,1540931897,-0.389146691,0.325767985,-0.468541915,-0.133010864,-0.136138916,-1.060836792,28.44897461,-15.95205688,-70.78265381,,,,,,,,0,38:06.7,0:17,60,0,38:16.6,1540931897,-0.391298259,0.413703167,-0.54446411,-0.112228394,-0.159164429,-1.120025635,29.24714661,-16.42062378,-70.8347168,,,,,,,,0,38:06.7,0:17,60,0,38:16.6,1540931897,-0.376910265,0.476439785,-0.579728624,-0.086730957,-0.187225342,-1.163955688,29.24714661,-16.42062378,-70.8347168,,,,,,,,0,38:06.7,0:17,60,0,38:16.7,1540931897,-0.346982726,0.544912853,-0.463998296,-0.035522461,-0.238220215,-1.206573486,30.0881958,-16.12095642,-70.93391418,,,,,,,,0,38:06.7,0:17,60,0,38:16.7,1540931897,-0.349789698,0.533061253,-0.198438524,0.031402588,-0.287948608,-1.255752563,30.42446899,-16.34312439,-71.08003235,,,,,,,,0,38:06.7,0:17,60,0,38:16.7,1540931897,-0.359158965,0.270454928,0.037900244,0.06022644,-0.278594971,-1.340774536,30.56446838,-15.12892151,-71.49555969,,,,,,,,0,38:06.7,0:17,60,0,38:16.7,1540931897,-0.293559981,-0.22606163,0.164704529,0.042129517,-0.167922974,-1.447067261,30.13031006,-15.0435791,-71.67211914,,,,,,,,0,38:06.7,0:17,60,0,38:16.7,1540931897,-0.188758733,-0.518990708,0.136475554,-0.030975342,-0.021255493,-1.458328247,29.91072083,-15.15576172,-71.76631165,,,,,,,,0,38:06.7,0:17,60,0,38:16.7,1540931897,0.018928684,-0.348224291,-0.059331501,-0.113464355,0.066864014,-1.445266724,29.91072083,-15.15576172,-71.76631165,,,,,,,,0,38:06.7,0:17,60,0,38:16.8,1540931897,0.371099247,-0.047201068,-0.176839755,-0.100723267,0.080841064,-1.429351807,30.41583252,-15.64358521,-71.60087585,,,,,,,,0,38:06.7,0:17,60,0,38:16.8,1540931897,0.624249753,0.202019943,-0.085570029,-0.022888184,0.009994507,-1.326599121,30.44242859,-16.11399841,-71.22663879,,,,,,,,0,38:06.7,0:17,60,0,38:16.8,1540931897,0.60401399,0.441616025,0.093564306,0.033370972,-0.056152344,-1.142868042,30.52790833,-15.58724976,-71.28044128,,,,,,,,0,38:06.7,0:17,60,0,38:16.8,1540931897,0.459667197,0.598140655,0.246925367,0.042877197,-0.054016113,-1.023406982,30.5370636,-15.97750854,-71.29446411,,,,,,,,0,38:06.7,0:17,60,0,38:16.8,1540931897,0.442362775,0.45744905,0.308865966,0.049468994,-0.013549805,-1.04776001,30.74180603,-15.78486633,-71.27615356,,,,,,,,0,38:06.7,0:17,60,0,38:16.8,1540931897,0.439328369,0.142708416,0.313832762,0.045394897,0.01625061,-1.029953003,30.74180603,-15.78486633,-71.27615356,,,,,,,,0,38:06.7,0:17,60,0,38:16.9,1540931897,0.348506054,-0.199324292,0.321999612,0.035766602,-0.002548218,-0.963638306,30.97854614,-16.76252747,-70.75326538,,,,,,,,0,38:06.7,0:17,60,0,38:16.9,1540931897,0.210067484,-0.438331282,0.376352066,0.024642944,-0.032592773,-0.879592896,30.79057312,-17.03540039,-70.46142578,,,,,,,,0,38:06.7,0:17,60,0,38:16.9,1540931897,0.087642767,-0.441624014,0.411715916,-0.010482788,-0.042572021,-0.798080444,30.36019897,-16.64042664,-70.78234863,,,,,,,,0,38:06.7,0:17,60,0,38:16.9,1540931897,-0.018865567,-0.221069268,0.420580514,-0.050308228,-0.0496521,-0.744750977,29.51307678,-16.24026489,-70.89160156,,,,,,,,0,38:06.7,0:17,60,0,38:16.9,1540931897,-0.071656877,0.203556854,0.388991163,-0.100830078,-0.049102783,-0.730758667,29.67460632,-15.80622864,-70.94470215,,,,,,,,0,38:06.7,0:17,60,0,38:16.9,1540931897,-0.033422405,0.539947389,0.295161073,-0.120361328,-0.031723022,-0.806915283,30.38989258,-16.80128479,-70.63063049,,,,,,,,0,38:06.7,0:17,60,0,38:17.0,1540931897,0.062094264,0.581607484,0.196670185,-0.081436157,-0.019165039,-0.912796021,30.38989258,-16.80128479,-70.63063049,,,,,,,,0,38:06.7,0:17,60,0,38:17.0,1540931897,0.165869396,0.391612512,0.12573396,-0.032012939,-0.029953003,-0.96875,30.80593872,-16.80651855,-70.92041016,,,,,,,,0,38:06.7,0:17,60,0,38:17.0,1540931897,0.219462317,0.140383211,0.070797208,-0.001052856,-0.048278809,-0.949188232,30.83563232,-16.96736145,-70.7686615,,,,,,,,0,38:06.7,0:17,60,0,38:17.0,1540931897,0.167916568,0.0403397,0.057835869,0.011581421,-0.076171875,-0.874313354,30.58094788,-16.21882629,-71.14494324,,,,,,,,0,38:06.7,0:17,60,0,38:17.0,1540931897,0.106989301,0.169713136,0.038734613,-0.009216309,-0.108657837,-0.821792603,30.82632446,-16.26786804,-71.36761475,,,,,,,,0,38:06.7,0:17,60,0,38:17.0,1540931897,0.097145192,0.344092397,0.002542786,-0.026870728,-0.113052368,-0.847976685,31.02554321,-16.69430542,-70.82621765,,,,,,,,0,38:06.7,0:17,60,0,38:17.1,1540931897,0.155822088,0.402163157,-0.054155381,-0.00630188,-0.105987549,-0.915740967,31.02554321,-16.69430542,-70.82621765,,,,,,,,0,38:06.7,0:17,60,0,38:17.1,1540931897,0.183606049,0.229766354,-0.015823704,0.058425903,-0.145202637,-0.971588135,31.78305054,-16.92120361,-70.63737488,,,,,,,,0,38:06.7,0:17,60,0,38:17.1,1540931897,0.144544932,-0.083885313,0.073751186,0.112075806,-0.192047119,-0.986999512,31.74716187,-17.37948608,-70.34414673,,,,,,,,0,38:06.7,0:17,60,0,38:17.1,1540931897,0.036605682,-0.326511273,0.148438208,0.112319946,-0.206604004,-0.949798584,31.27728271,-16.43347168,-70.88087463,,,,,,,,0,38:06.7,0:17,60,0,38:17.1,1540931897,-0.064865549,-0.348315372,0.164498667,0.069030762,-0.198928833,-0.904388428,30.70266724,-16.24343872,-71.37342834,,,,,,,,0,38:06.7,0:17,60,0,38:17.1,1540931897,0.01265907,-0.094478569,0.064132115,0.019851685,-0.172119141,-0.951599121,30.62792969,-16.15063477,-71.21791077,,,,,,,,0,38:06.7,0:17,60,0,38:17.2,1540931897,0.01265907,-0.094478569,0.064132115,0.019851685,-0.172119141,-0.951599121,30.62792969,-16.15063477,-71.21791077,,,,,,,,0,38:06.7,0:17,60,0,38:17.2,1540931897,0.095529186,-0.038867505,0.023488016,0.026489258,-0.19720459,-0.991714478,31.20597839,-17.04071045,-70.82929993,,,,,,,,0,38:06.7,0:17,60,0,38:17.2,1540931897,0.20983712,0.325782099,-0.016782442,0.030059814,-0.225570679,-1.015686035,31.20597839,-17.04071045,-70.82929993,,,,,,,,0,38:06.7,0:17,60,0,38:17.2,1540931897,0.20983712,0.325782099,-0.016782442,0.030059814,-0.225570679,-1.015686035,31.42739868,-16.61904907,-71.11381531,,,,,,,,0,38:06.7,0:17,60,0,38:17.2,1540931897,0.239934303,0.494241419,-0.020865335,0.03477478,-0.222167969,-1.069259644,31.33651733,-16.44593811,-71.19035339,,,,,,,,0,38:06.7,0:17,60,0,38:17.2,1540931897,0.018700983,0.618693867,-0.0474301,0.048629761,-0.206848145,-1.139465332,32.08670044,-15.97312927,-71.36613464,,,,,,,,0,38:06.7,0:17,60,0,38:17.3,1540931897,0.018700983,0.618693867,-0.0474301,0.048629761,-0.206848145,-1.139465332,32.6133728,-17.24113464,-70.83827209,,,,,,,,0,38:06.7,0:17,60,0,38:17.3,1540931897,-0.034023481,0.254224292,-0.199929362,0.049575806,-0.158935547,-1.315338135,32.6133728,-17.24113464,-70.83827209,,,,,,,,0,38:06.7,0:17,60,0,38:17.3,1540931897,-0.007595335,-0.098111387,-0.331015477,0.04347229,-0.153549194,-1.312576294,33.2490387,-17.13414001,-71.03388977,,,,,,,,0,38:06.7,0:17,60,0,38:17.3,1540931897,-0.007595335,-0.098111387,-0.331015477,0.04347229,-0.153549194,-1.312576294,33.22193909,-16.97303772,-70.8732605,,,,,,,,0,38:06.7,0:17,60,0,38:17.3,1540931897,-0.176361984,-0.228195089,-0.394316153,0.001693726,-0.210174561,-1.201416016,32.99304199,-16.38577271,-71.56636047,,,,,,,,0,38:06.7,0:17,60,0,38:17.3,1540931897,-0.070927969,-0.129523372,-0.438125153,-0.011917114,-0.171142578,-1.22026062,33.08444214,-16.24957275,-72.02468872,,,,,,,,0,38:06.7,0:17,60,0,38:17.4,1540931897,-0.070927969,-0.129523372,-0.438125153,-0.011917114,-0.171142578,-1.22026062,33.29714966,-16.75656128,-71.56362915,,,,,,,,0,38:06.7,0:17,60,0,38:17.4,1540931897,0.317871978,0.035895683,-0.542959158,-0.012420654,-0.07131958,-1.169250488,33.29714966,-16.75656128,-71.56362915,,,,,,,,0,38:06.7,0:17,60,0,38:17.4,1540931897,0.373995701,-0.056451292,-0.575212435,0.002609253,-0.042999268,-1.082214355,33.91178894,-17.18829346,-71.39015198,,,,,,,,0,38:06.7,0:17,60,0,38:17.4,1540931897,0.269253576,-0.094362455,-0.580588292,0.002960205,-0.033309937,-0.957748413,34.25193787,-17.41009521,-71.06767273,,,,,,,,0,38:06.7,0:17,60,0,38:17.4,1540931897,0.148939414,0.014769092,-0.534377654,-0.005111694,-0.0493927,-0.877426147,34.24395752,-16.71047974,-71.51040649,,,,,,,,0,38:06.7,0:17,60,0,38:17.4,1540931897,0.112197379,0.162929532,-0.441021074,-0.011642456,-0.066818237,-0.873031616,34.2568512,-16.79109192,-71.6688385,,,,,,,,0,38:06.7,0:17,60,0,38:17.5,1540931897,0.152524562,0.205532653,-0.372443078,-0.015182495,-0.055099487,-0.898986816,34.82626343,-16.98161316,-71.80105591,,,,,,,,0,38:06.7,0:17,60,0,38:17.5,1540931897,0.129332956,0.220645027,-0.30923801,-0.023208618,-0.055435181,-0.882339478,34.82626343,-16.98161316,-71.80105591,,,,,,,,0,38:06.7,0:17,60,0,38:17.5,1540931897,0.049448776,0.265436467,-0.228848895,-0.030792236,-0.063293457,-0.861541748,35.22776794,-17.52488708,-70.9407959,,,,,,,,0,38:06.7,0:17,60,0,38:17.5,1540931898,0.000901746,0.279637773,-0.147434196,-0.021255493,-0.053573608,-0.892089844,35.64707947,-17.52981567,-70.84011841,,,,,,,,0,38:06.7,0:17,60,0,38:17.5,1540931898,0.05739698,0.248544835,-0.081092723,-0.015869141,-0.041595459,-0.934799194,35.86264038,-17.10876465,-71.82748413,,,,,,,,0,38:06.7,0:17,60,0,38:17.5,1540931898,0.191203515,0.128270621,-0.078060714,-0.024673462,-0.023239136,-0.952819824,35.62948608,-17.14041138,-71.84133911,,,,,,,,0,38:06.7,0:17,60,0,38:17.6,1540931898,0.303669074,-0.030522489,-0.128614169,-0.042800903,-0.013366699,-0.919311523,35.49537659,-16.7258606,-71.98933411,,,,,,,,0,38:06.7,0:17,60,0,38:17.6,1540931898,0.321212115,-0.308343188,-0.209275726,-0.063766479,-0.037506104,-0.86831665,35.90159607,-17.96911621,-71.07679749,,,,,,,,0,38:06.7,0:17,60,0,38:17.6,1540931898,0.143592053,-0.469918503,-0.22014089,-0.072143555,-0.100906372,-0.778457642,35.90159607,-17.96911621,-71.07679749,,,,,,,,0,38:06.7,0:17,60,0,38:17.6,1540931898,-0.106540026,-0.361905483,-0.123569876,-0.059066772,-0.161346436,-0.752853394,35.74891663,-17.7837677,-71.15628052,,,,,,,,0,38:06.7,0:17,60,0,38:17.6,1540931898,-0.060534451,-0.275045152,-0.04637176,-0.053146362,-0.178421021,-0.89050293,35.65542603,-17.61088562,-71.54522705,,,,,,,,0,38:06.7,0:17,60,0,38:17.6,1540931898,0.232354946,-0.18812996,-0.03455558,-0.104141235,-0.165252686,-0.978408813,35.28881836,-17.22793579,-71.62896729,,,,,,,,0,38:06.7,0:17,60,0,38:17.7,1540931898,0.466688088,-0.177142823,-0.098850148,-0.153030396,-0.160339355,-0.96711731,35.00672913,-17.32800293,-71.80415344,,,,,,,,0,38:06.7,0:17,60,0,38:17.7,1540931898,0.458121764,-0.095682851,-0.162999307,-0.146270752,-0.189254761,-0.882324219,35.15388489,-18.13240051,-71.20162964,,,,,,,,0,38:06.7,0:17,60,0,38:17.7,1540931898,0.30966305,0.038745798,-0.154230849,-0.096939087,-0.218826294,-0.845153809,35.15388489,-18.13240051,-71.20162964,,,,,,,,0,38:06.7,0:17,60,0,38:17.7,1540931898,0.237015744,0.168013241,-0.118715466,-0.049713135,-0.228027344,-0.913543701,35.61512756,-18.37884521,-71.18571472,,,,,,,,0,38:06.7,0:17,60,0,38:17.7,1540931898,0.268906299,0.095063666,-0.074907797,-0.00189209,-0.23236084,-1.03225708,35.70419312,-18.86143494,-70.73046875,,,,,,,,0,38:06.7,0:17,60,0,38:17.7,1540931898,0.304795857,-0.110953683,-0.033406959,0.027404785,-0.246047974,-1.090621948,35.38508606,-18.10096741,-71.42204285,,,,,,,,0,38:06.7,0:17,60,0,38:17.8,1540931898,0.229531995,-0.243594818,0.047833036,0.049133301,-0.270614624,-1.060134888,35.18032837,-18.2935791,-71.44035339,,,,,,,,0,38:06.7,0:17,60,0,38:17.8,1540931898,0.090777042,-0.178795048,0.134686176,0.046432495,-0.272369385,-1.020492554,35.03610229,-18.49855042,-71.61196899,,,,,,,,0,38:06.7,0:17,60,0,38:17.8,1540931898,0.028303543,0.023885626,0.179927424,0.034561157,-0.227294922,-1.049423218,35.03610229,-18.49855042,-71.61196899,,,,,,,,0,38:06.7,0:17,60,0,38:17.8,1540931898,0.044409809,0.164331687,0.182238515,0.030853271,-0.199707031,-1.125442505,34.98728943,-18.87620544,-71.16030884,,,,,,,,0,38:06.7,0:17,60,0,38:17.8,1540931898,0.099524194,0.187705186,0.155482535,0.030090332,-0.194000244,-1.177276611,35.23153687,-19.23460388,-70.92619324,,,,,,,,0,38:06.7,0:17,60,0,38:17.8,1540931898,0.106688896,0.155359497,0.11260644,0.042160034,-0.19694519,-1.160675049,35.2171936,-18.84487915,-71.53694153,,,,,,,,0,38:06.7,0:17,60,0,38:17.9,1540931898,-0.018301243,0.218005302,0.164115172,0.099594116,-0.200820923,-1.072235107,34.73539734,-18.82780457,-71.71864319,,,,,,,,0,38:06.7,0:17,60,0,38:17.9,1540931898,-0.246342401,0.328905455,0.297093729,0.124969482,-0.203887939,-1.007644653,34.8678894,-18.23283386,-71.84538269,,,,,,,,0,38:06.7,0:17,60,0,38:17.9,1540931898,-0.514576252,0.542837185,0.4569806,0.108383179,-0.179153442,-1.007247925,34.95877075,-18.40597534,-71.7688446,,,,,,,,0,38:06.7,0:17,60,0,38:17.9,1540931898,-0.635039817,0.641072675,0.523524207,0.072174072,-0.096069336,-1.120056152,34.95877075,-18.40597534,-71.7688446,,,,,,,,0,38:06.7,0:17,60,0,38:17.9,1540931898,-0.300421349,0.390290252,0.223293008,0.00604248,0.088607788,-1.291290283,35.50158691,-18.12608337,-72.27528381,,,,,,,,0,38:06.7,0:17,60,0,38:17.9,1540931898,-0.300421349,0.390290252,0.223293008,0.00604248,0.088607788,-1.291290283,35.43782043,-18.11405945,-72.51249695,,,,,,,,0,38:06.7,0:17,60,0,38:18.0,1540931898,0.001986984,0.204447947,-0.010456902,0.010467529,0.111877441,-1.234512329,35.18505859,-17.36532593,-72.65447998,,,,,,,,0,38:06.7,0:17,60,0,38:18.0,1540931898,0.017184846,0.234848464,-0.075745628,0.08656311,-0.051467896,-0.94619751,35.24432373,-17.37780762,-72.96395874,,,,,,,,0,38:06.7,0:17,60,0,38:18.0,1540931898,0.017184846,0.234848464,-0.075745628,0.08656311,-0.051467896,-0.94619751,35.57568359,-18.21894836,-72.50891113,,,,,,,,0,38:06.7,0:17,60,0,38:18.0,1540931898,-0.10697705,0.276884331,-0.011412178,0.086395264,-0.090835571,-0.888076782,35.57568359,-18.21894836,-72.50891113,,,,,,,,0,38:06.7,0:17,60,0,38:18.0,1540931898,-0.087632914,0.301802731,-0.06814177,0.07460022,-0.045791626,-0.878753662,35.70245361,-17.93382263,-72.72557068,,,,,,,,0,38:06.7,0:17,60,0,38:18.0,1540931898,-0.087632914,0.301802731,-0.06814177,0.07460022,-0.045791626,-0.878753662,36.17788696,-18.26078796,-72.71188354,,,,,,,,0,38:06.7,0:17,60,0,38:18.1,1540931898,-0.053610498,0.243756738,0.030297718,0.144287109,-0.122940063,-0.817932129,35.92060852,-17.51249695,-73.40054321,,,,,,,,0,38:06.7,0:17,60,0,38:18.1,1540931898,-0.136293927,0.116432071,0.152238805,0.156890869,-0.166290283,-0.819992065,35.96255493,-17.75404358,-73.48532104,,,,,,,,0,38:06.7,0:17,60,0,38:18.1,1540931898,-0.136293927,0.116432071,0.152238805,0.156890869,-0.166290283,-0.819992065,35.76348877,-17.63685608,-73.41371155,,,,,,,,0,38:06.7,0:17,60,0,38:18.1,1540931898,-0.136257441,-0.300313491,0.233110219,0.104660034,-0.150436401,-0.823760986,35.76348877,-17.63685608,-73.41371155,,,,,,,,0,38:06.7,0:17,60,0,38:18.1,1540931898,-0.167225744,-0.344302254,0.218071348,0.077072144,-0.1590271,-0.756988525,35.71144104,-18.01483154,-73.35256958,,,,,,,,0,38:06.7,0:17,60,0,38:18.1,1540931898,-0.167225744,-0.344302254,0.218071348,0.077072144,-0.1590271,-0.756988525,35.21740723,-17.91706848,-73.29774475,,,,,,,,0,38:06.7,0:17,60,0,38:18.2,1540931898,-0.300900984,-0.092218611,0.251611199,0.052032471,-0.20463562,-0.773544312,34.92472839,-17.31776428,-74.22805786,,,,,,,,0,38:06.7,0:17,60,0,38:18.2,1540931898,-0.203810653,0.019452528,0.222812307,0.052032471,-0.20463562,-0.773544312,34.46348572,-17.07131958,-74.24395752,,,,,,,,0,38:06.7,0:17,60,0,38:18.2,1540931898,-0.070576965,0.157881244,0.177974795,0.060699463,-0.183914185,-0.921722412,34.46791077,-16.7616272,-74.31027222,,,,,,,,0,38:06.7,0:17,60,0,38:18.2,1540931898,-0.001208809,0.234185337,0.134146886,0.082794189,-0.194503784,-0.975570679,34.46791077,-16.7616272,-74.31027222,,,,,,,,0,38:06.7,0:17,60,0,38:18.2,1540931898,-0.001208809,0.234185337,0.134146886,0.082794189,-0.194503784,-0.975570679,34.66204834,-17.49781799,-73.78068542,,,,,,,,0,38:06.7,0:17,60,0,38:18.2,1540931898,0.035820316,-0.121338413,-0.036567599,0.087631226,-0.216827393,-1.077056885,34.72062683,-17.51034546,-74.16825867,,,,,,,,0,38:06.7,0:17,60,0,38:18.3,1540931898,-0.023349797,-0.36926646,-0.105394334,0.09147644,-0.230255127,-1.066986084,34.44490051,-17.30050659,-74.17544556,,,,,,,,0,38:06.7,0:17,60,0,38:18.3,1540931898,-0.023349797,-0.36926646,-0.105394334,0.09147644,-0.230255127,-1.066986084,33.90371704,-16.96173096,-74.66062927,,,,,,,,0,38:06.7,0:17,60,0,38:18.3,1540931898,-0.203603193,-0.475654419,-0.116190789,0.044006348,-0.274124146,-1.115402222,33.51719666,-16.80809021,-74.83206177,,,,,,,,0,38:06.7,0:17,60,0,38:18.3,1540931898,-0.18726683,-0.318853619,-0.147056293,0.008010864,-0.245620728,-1.183807373,33.46907043,-17.1856842,-74.30230713,,,,,,,,0,38:06.7,0:17,60,0,38:18.3,1540931898,-0.097846669,-0.141959536,-0.238953727,-0.018676758,-0.195922852,-1.255325317,33.46907043,-17.1856842,-74.30230713,,,,,,,,0,38:06.7,0:17,60,0,38:18.3,1540931898,0.044491834,-0.0563943,-0.339543452,-0.027664185,-0.164672852,-1.335739136,33.63908386,-17.14195251,-74.44755554,,,,,,,,0,38:06.7,0:17,60,0,38:18.4,1540931898,0.191821102,-0.233468147,-0.500426611,-0.036300659,-0.131469727,-1.401748657,33.65652466,-17.22212219,-74.05929565,,,,,,,,0,38:06.7,0:17,60,0,38:18.4,1540931898,0.236501488,-0.569446425,-0.708598989,-0.025222778,-0.09161377,-1.368026733,33.36270142,-16.93218994,-74.53285217,,,,,,,,0,38:06.7,0:17,60,0,38:18.4,1540931898,0.218494791,-0.838951936,-0.889902735,-0.031143188,-0.100875854,-1.292541504,33.27656555,-17.45899963,-74.55714417,,,,,,,,0,38:06.7,0:17,60,0,38:18.4,1540931898,0.13786892,-0.663081571,-0.858611391,-0.001617432,-0.131790161,-1.19543457,33.10783386,-17.50262451,-74.25570679,,,,,,,,0,38:06.7,0:17,60,0,38:18.4,1540931898,0.009205216,0.048884186,-0.615687424,0.034378052,-0.168380737,-1.10585022,33.10783386,-17.50262451,-74.25570679,,,,,,,,0,38:06.7,0:17,60,0,38:18.4,1540931898,0.002921221,0.654810592,-0.385774064,0.049804688,-0.1146698,-1.12512207,33.79847717,-18.02703857,-74.08154297,,,,,,,,0,38:06.7,0:17,60,0,38:18.5,1540931898,0.139201566,0.920325888,-0.301952134,0.069015503,-0.004760742,-1.168426514,34.37553406,-17.90757751,-73.8895874,,,,,,,,0,38:06.7,0:17,60,0,38:18.5,1540931898,0.241320478,0.907379463,-0.284858901,0.094818115,0.050582886,-1.152069092,34.94741821,-17.78857422,-74.32240295,,,,,,,,0,38:06.7,0:17,60,0,38:18.5,1540931898,0.205260478,0.676085521,-0.241230197,0.113616943,0.047988892,-1.092544556,35.22575378,-17.99815369,-74.00283813,,,,,,,,0,38:06.7,0:17,60,0,38:18.5,1540931899,0.021479992,0.32718958,-0.187002378,0.102874756,0.015609741,-1.01852417,35.4342804,-17.49588013,-74.12890625,,,,,,,,0,38:06.7,0:17,60,0,38:18.5,1540931899,-0.180432892,-0.053796387,-0.178856834,0.083572388,0.002182007,-0.944961548,35.63217163,-17.92245483,-73.74371338,,,,,,,,0,38:06.7,0:17,60,0,38:18.5,1540931899,-0.310642561,-0.211637417,-0.15546123,0.059234619,-0.020904541,-0.868515015,35.63217163,-17.92245483,-73.74371338,,,,,,,,0,38:06.7,0:17,60,0,38:18.6,1540931899,-0.340601526,-0.02232954,-0.089897932,0.024414063,-0.053161621,-0.825256348,35.66366577,-17.77386475,-73.97067261,,,,,,,,0,38:06.7,0:17,60,0,38:18.6,1540931899,-0.262683025,0.309809791,-0.027397003,0.005157471,-0.050308228,-0.832702637,35.85032654,-17.50111389,-74.41871643,,,,,,,,0,38:06.7,0:17,60,0,38:18.6,1540931899,-0.10165206,0.507126059,0.011358648,0.000244141,-0.038009644,-0.888366699,35.83482361,-17.42076111,-74.57267761,,,,,,,,0,38:06.7,0:17,60,0,38:18.6,1540931899,0.119796176,0.394749183,-0.007037936,0.010803223,-0.02281189,-0.943084717,36.13293457,-17.09176636,-74.77839661,,,,,,,,0,38:06.7,0:17,60,0,38:18.6,1540931899,0.330458344,0.026331473,-0.075007399,0.031997681,-0.008346558,-0.945068359,36.08035278,-17.77905273,-74.18235779,,,,,,,,0,38:06.7,0:17,60,0,38:18.6,1540931899,0.382585461,-0.269204041,-0.136423623,0.039962769,-0.014389038,-0.851028442,36.08035278,-17.77905273,-74.18235779,,,,,,,,0,38:06.7,0:17,60,0,38:18.7,1540931899,0.273058967,-0.263676384,-0.173870597,0.008361816,-0.062652588,-0.724807739,35.93875122,-17.98374939,-74.04156494,,,,,,,,0,38:06.7,0:17,60,0,38:18.7,1540931899,0.083756683,0.010654775,-0.160636284,-0.025344849,-0.153961182,-0.699325562,35.95553589,-18.06399536,-73.73139954,,,,,,,,0,38:06.7,0:17,60,0,38:18.7,1540931899,-0.007535414,0.292471014,-0.090660661,-0.038223267,-0.237792969,-0.799911499,36.18855286,-17.7230835,-74.33052063,,,,,,,,0,38:06.7,0:17,60,0,38:18.7,1540931899,0.285827759,0.183226815,0.287148154,0.072296143,-0.23576355,-1.037887573,36.07841492,-17.77923584,-74.41665649,,,,,,,,0,38:06.7,0:17,60,0,38:18.7,1540931899,0.285827759,0.183226815,0.287148154,0.072296143,-0.23576355,-1.037887573,36.01542664,-18.0763855,-73.96278381,,,,,,,,0,38:06.7,0:17,60,0,38:18.7,1540931899,0.426374487,-0.080462885,0.434567969,0.100982666,-0.199478149,-1.050262451,36.01542664,-18.0763855,-73.96278381,,,,,,,,0,38:06.7,0:17,60,0,38:18.8,1540931899,0.191920171,-0.306980448,0.5714153,0.06602478,-0.153488159,-0.955184937,35.96401978,-18.45429993,-73.8235321,,,,,,,,0,38:06.7,0:17,60,0,38:18.8,1540931899,0.108499846,-0.32235248,0.558566081,0.052825928,-0.11505127,-0.987258911,35.49855042,-18.82679749,-73.16020203,,,,,,,,0,38:06.7,0:17,60,0,38:18.8,1540931899,0.090200733,-0.265684674,0.496530406,0.035583496,-0.093185425,-1.021408081,34.29200745,-18.43411255,-73.60151672,,,,,,,,0,38:06.7,0:17,60,0,38:18.8,1540931899,0.128584874,-0.112451711,0.493497598,0.075942993,-0.15007019,-1.118469238,34.17028809,-18.40948486,-73.37303162,,,,,,,,0,38:06.7,0:17,60,0,38:18.8,1540931899,0.27902791,-0.13361745,0.556616114,0.105529785,-0.185745239,-1.216400146,34.17028809,-18.40948486,-73.37303162,,,,,,,,0,38:06.7,0:17,60,0,38:18.9,1540931899,0.449632139,-0.13348589,0.655094485,0.123031616,-0.187011719,-1.2525177,33.93092346,-19.06027222,-72.94194031,,,,,,,,0,38:06.7,0:17,60,0,38:18.9,1540931899,0.426540136,0.125820779,0.780710734,0.122375488,-0.174911499,-1.122070313,33.52906799,-19.13551331,-72.65435791,,,,,,,,0,38:06.7,0:17,60,0,38:18.9,1540931899,0.134629185,0.753803485,1.049271088,0.134567261,-0.216064453,-0.913925171,33.53561401,-19.52603149,-72.98077393,,,,,,,,0,38:06.7,0:17,60,0,38:18.9,1540931899,-0.368396671,1.164869058,1.432196902,0.13861084,-0.285507202,-0.865951538,33.20439148,-18.99411011,-72.82286072,,,,,,,,0,38:06.7,0:17,60,0,38:18.9,1540931899,-0.741349745,0.896480743,1.552963001,0.113235474,-0.200424194,-1.068756104,33.27178955,-18.38726807,-73.34303284,,,,,,,,0,38:06.7,0:17,60,0,38:18.9,1540931899,-0.820223788,0.750076924,1.297936298,0.068405151,-0.014541626,-1.173553467,33.10748291,-18.12117004,-73.10787964,,,,,,,,0,38:06.7,0:17,60,0,38:19.0,1540931899,-0.685791145,0.477015827,0.828529655,0.022766113,0.120193481,-1.224075317,33.10748291,-18.12117004,-73.10787964,,,,,,,,0,38:06.7,0:17,60,0,38:19.0,1540931899,-0.45524555,0.105773035,0.337561527,0.032333374,0.172348022,-1.224151611,33.14402771,-17.6628418,-73.32301331,,,,,,,,0,38:06.7,0:17,60,0,38:19.0,1540931899,-0.357080634,-0.064816814,0.025706695,0.114227295,0.13722229,-1.129394531,33.11238098,-17.50216675,-73.70904541,,,,,,,,0,38:06.7,0:17,60,0,38:19.0,1540931899,-0.400387095,-0.104936803,-0.11568612,0.136749268,0.055267334,-1.041809082,32.95298767,-16.61708069,-74.07504272,,,,,,,,0,38:06.7,0:17,60,0,38:19.0,1540931899,-0.419711258,-0.144702325,-0.132864308,0.164398193,-0.006881714,-1.016784668,32.9213562,-16.4564209,-74.46109009,,,,,,,,0,38:06.7,0:17,60,0,38:19.0,1540931899,-0.326677454,-0.233137117,-0.150129581,0.154266357,-0.028137207,-1.018814087,32.69781494,-16.17785645,-73.91644287,,,,,,,,0,38:06.7,0:17,60,0,38:19.1,1540931899,-0.138986649,-0.369672858,-0.26706712,0.119262695,-0.023590088,-0.98046875,32.69781494,-16.17785645,-73.91644287,,,,,,,,0,38:06.7,0:17,60,0,38:19.1,1540931899,0.035827772,-0.423809863,-0.402104568,0.095046997,-0.039749146,-0.900268555,32.80158997,-16.43161011,-73.99832153,,,,,,,,0,38:06.7,0:17,60,0,38:19.1,1540931899,0.160393138,-0.425795782,-0.474955606,0.090545654,-0.090332031,-0.81930542,32.49436951,-16.37036133,-73.77856445,,,,,,,,0,38:06.7,0:17,60,0,38:19.1,1540931899,0.257607839,-0.39551644,-0.436390636,0.116638184,-0.150512695,-0.758911133,32.77449036,-16.27049255,-73.83766174,,,,,,,,0,38:06.7,0:17,60,0,38:19.1,1540931899,0.300200307,-0.332457313,-0.349583303,0.118743896,-0.202987671,-0.712173462,32.49371338,-16.37043762,-73.85665894,,,,,,,,0,38:06.7,0:17,60,0,38:19.1,1540931899,0.244240368,-0.213243037,-0.274462452,0.100128174,-0.237045288,-0.685623169,32.52404785,-16.53121948,-73.62683105,,,,,,,,0,38:06.7,0:17,60,0,38:19.2,1540931899,0.150546632,-0.174881533,-0.175873294,0.101791382,-0.277709961,-0.731338501,32.76582336,-17.1991272,-73.09213257,,,,,,,,0,38:06.7,0:17,60,0,38:19.2,1540931899,0.067595556,-0.320753785,-0.013262276,0.120071411,-0.301498413,-0.820053101,32.76582336,-17.1991272,-73.09213257,,,,,,,,0,38:06.7,0:17,60,0,38:19.2,1540931899,-0.032644496,-0.511857697,0.141801078,0.10748291,-0.305023193,-0.875701904,32.49009705,-16.98928833,-73.09931946,,,,,,,,0,38:06.7,0:17,60,0,38:19.2,1540931899,-0.138764541,-0.575847067,0.169590098,0.062759399,-0.275421143,-0.905899048,31.90322876,-16.71859741,-73.35536194,,,,,,,,0,38:06.7,0:17,60,0,38:19.2,1540931899,-0.145603273,-0.536543603,0.094679904,0.015365601,-0.223129272,-0.976150513,31.67382813,-16.44061279,-73.51359558,,,,,,,,0,38:06.7,0:17,60,0,38:19.2,1540931899,-0.003490872,-0.477956456,-0.020935109,-0.000640869,-0.178833008,-1.075836182,31.11013794,-15.9402771,-73.29145813,,,,,,,,0,38:06.7,0:17,60,0,38:19.3,1540931899,0.173001874,-0.459770261,-0.123757895,-0.017791748,-0.1693573,-1.141525269,31.11810303,-16.63990784,-72.84869385,,,,,,,,0,38:06.7,0:17,60,0,38:19.3,1540931899,0.275948496,-0.400021177,-0.165472585,-0.027099609,-0.200241089,-1.163864136,31.11810303,-16.63990784,-72.84869385,,,,,,,,0,38:06.7,0:17,60,0,38:19.3,1540931899,0.291511743,-0.216134165,-0.205942247,-0.034988403,-0.201034546,-1.167663574,31.12789917,-17.03010559,-72.78463745,,,,,,,,0,38:06.7,0:17,60,0,38:19.3,1540931899,0.275808947,0.000595483,-0.269922828,-0.022506714,-0.168334961,-1.196029663,31.48406982,-17.02293396,-72.84306335,,,,,,,,0,38:06.7,0:17,60,0,38:19.3,1540931899,0.247722984,0.137374904,-0.326503017,-0.008422852,-0.14515686,-1.278457642,31.49891663,-17.10336304,-72.7671814,,,,