SessionID,SessionDate,SessionDuration,SessionFrequency,RecordID,Timestamp,timeIntervalSince1970,GyroX,GyroY,GyroZ,AccX,AccY,AccZ,MagX,MagY,MagZ,WatchTimestamp,WatchtImeIntervalSince1970,WatchGyroX,WatchGyroY,WatchGyroZ,WatchAccX,WatchAccY,WatchAccZ
0,2018-10-30 16:38:06.7480,00:17,60,0,2018-10-30 16:38:06.7650,1540931886.7649698,-0.5912814168060087,-0.26773823703002614,-0.3289424725700092,0.0165557861328125,-0.0771026611328125,-1.050872802734375,42.32926940917969,28.997329711914062,-72.64726257324219,,,,,,,,,,
0,2018-10-30 16:38:06.7480,00:17,60,0,2018-10-30 16:38:06.7840,1540931886.7838778,-0.09914549264201492,0.15560690459667584,-0.2664287607220342,0.0294647216796875,-0.0981292724609375,-1.0659332275390625,42.4110107421875,29.214447021484375,-72.55667114257812,,,,,,,,,,
0,2018-10-30 16:38:06.7480,00:17,60,0,2018-10-30 16:38:06.8010,1540931886.800761,0.3365415364244413,0.29406464966989543,-0.2331661450230535,0.0758819580078125,-0.0970306396484375,-1.0963287353515625,42.29388427734375,28.848373413085938,-72.88890075683594,,,,,,,,,,
0,2018-10-30 16:38:06.7480,00:17,60,0,2018-10-30 16:38:06.8170,1540931886.8172321,0.5899988384250265,0.22989445162389116,-0.21188908580997443,0.1260528564453125,-0.1175537109375,-1.09735107421875,42.29388427734375,28.848373413085938,-72.88890075683594,,,,,,,,,,
0,2018-10-30 16:38:06.7480,00:17,60,0,2018-10-30 16:38:06.8340,1540931886.8335981,0.6354928203785231,0.14387354946600472,-0.17773857220356135,0.1329498291015625,-0.148406982421875,-1.0335540771484375,42.17933654785156,28.482528686523438,-72.90875244140625,,,,,,,,,,
0,2018-10-30 16:38:06.7480,00:17,60,0,2018-10-30 16:38:06.8500,1540931886.8502011,0.4554863001906503,0.07938323945697293,-0.11780652871630914,0.1293182373046875,-0.1781158447265625,-0.96771240234375,42.29664611816406,28.148223876953125,-73.07095336914062,,,,,,,,,,
0,2018-10-30 16:38:06.7480,00:17,60,0,2018-10-30 16:38:06.8670,1540931886.867023,0.18246488419012497,-0.010142915327675786,-0.06537900686479126,0.1247100830078125,-0.1831512451171875,-0.95513916015625,42.308258056640625,28.067474365234375,-73.38554382324219,,,,,,,,,,
0,2018-10-30 16:38:06.7480,00:17,60,0,2018-10-30 16:38:06.8840,1540931886.8835158,-0.07840532670469583,-0.1517072378124728,-0.011947739598422486,0.1302642822265625,-0.17437744140625,-0.975311279296875,42.06221008300781,28.116439819335938,-73.24098205566406,,,,,,,,,,
0,2018-10-30 16:38:06.7480,00:17,60,0,2018-10-30 16:38:06.9000,1540931886.9002562,-0.22367623679466514,-0.3460841752424132,-0.01215253668624958,0.130218505859375,-0.1432952880859375,-1.0187225341796875,41.76722717285156,28.097015380859375,-73.25775146484375,,,,,,,,,,
0,2018-10-30 16:38:06.7480,00:17,60,0,2018-10-30 16:38:06.9170,1540931886.917152,-0.2282158611888142,-0.49626435648583456,-0.04232082551466719,0.1196746826171875,-0.1056060791015625,-1.0318145751953125,41.36781311035156,28.331253051757812,-73.27076721191406,,,,,,,,,,
0,2018-10-30 16:38:06.7480,00:17,60,0,2018-10-30 16:38:06.9340,1540931886.933604,-0.17919984869368782,-0.4373448468450305,-0.017630126416324558,0.091064453125,-0.10150146484375,-1.0067901611328125,41.36781311035156,28.331253051757812,-73.27076721191406,,,,,,,,,,
0,2018-10-30 16:38:06.7480,00:17,60,0,2018-10-30 16:38:06.9500,1540931886.9502149,-0.08926303446894888,-0.29437117951136355,-0.013191968459707507,0.0694580078125,-0.09136962890625,-0.9914093017578125,41.24610900878906,28.355865478515625,-73.04231262207031,,,,,,,,,,
0,2018-10-30 16:38:06.7480,00:17,60,0,2018-10-30 16:38:06.9670,1540931886.967033,0.013504889887791817,-0.1426964322641897,-0.0515806366248727,0.0475921630859375,-0.0677642822265625,-0.97723388671875,41.09208679199219,28.541091918945312,-73.27793884277344,,,,,,,,,,
0,2018-10-30 16:38:06.7480,00:17,60,0,2018-10-30 16:38:06.9850,1540931886.984834,0.07940374579736653,0.1282107001469217,-0.06518353084077944,0.0379791259765625,-0.0761871337890625,-0.962982177734375,40.95420837402344,28.64599609375,-73.28153991699219,,,,,,,,,,
0,2018-10-30 16:38:06.7480,00:17,60,0,2018-10-30 16:38:07.0000,1540931887.000447,0.07940374579736653,0.1282107001469217,-0.06518353084077944,0.0342254638671875,-0.0932769775390625,-0.958831787109375,41.138427734375,28.6092529296875,-73.42901611328125,,,,,,,,,,
0,2018-10-30 16:38:06.7480,00:17,60,0,2018-10-30 16:38:07.0170,1540931887.016971,0.009883257121393062,0.13112260048281435,-0.0855095752285912,0.0321044921875,-0.1044464111328125,-0.952850341796875,41.025848388671875,28.243621826171875,-73.21456909179688,,,,,,,,,,
0,2018-10-30 16:38:06.7480,00:17,60,0,2018-10-30 16:38:07.0340,1540931887.033695,-0.06936043269445971,0.12201592113528839,-0.05230501644137425,0.0325775146484375,-0.132232666015625,-0.9794158935546875,41.025848388671875,28.243621826171875,-73.21456909179688,,,,,,,,,,
0,2018-10-30 16:38:06.7480,00:17,60,0,2018-10-30 16:38:07.0510,1540931887.050517,-0.15315706270991195,0.07727268429308513,-0.022355905770670165,0.030670166015625,-0.1250457763671875,-0.9894866943359375,40.908538818359375,28.577926635742188,-73.05239868164062,,,,,,,,,,
0,2018-10-30 16:38:06.7480,00:17,60,0,2018-10-30 16:38:07.0670,1540931887.067131,-0.26459171220209754,0.11719453429780895,-0.0008625978770766653,0.0197906494140625,-0.102386474609375,-1.007293701171875,41.077880859375,28.62158203125,-73.27571105957031,,,,,,,,,,
0,2018-10-30 16:38:06.7480,00:17,60,0,2018-10-30 16:38:07.0840,1540931887.083746,-0.26459171220209754,0.11719453429780895,-0.0008625978770766653,0.0197906494140625,-0.102386474609375,-1.007293701171875,40.94703674316406,29.036453247070312,-73.03323364257812,,,,,,,,,,
0,2018-10-30 16:38:06.7480,00:17,60,0,2018-10-30 16:38:07.1010,1540931887.100573,-0.19394177690782144,0.11227993682217671,-0.02337376593929845,0.0087127685546875,-0.0801239013671875,-1.0343780517578125,41.070709228515625,29.012039184570312,-73.02742004394531,,,,,,,,,,
0,2018-10-30 16:38:06.7480,00:17,60,0,2018-10-30 16:38:07.1170,1540931887.1172361,0.107920342117717,-0.0088661959010918,-0.20564237515708456,-0.0459136962890625,-0.05548095703125,-1.0043487548828125,40.9896240234375,28.794967651367188,-73.0399169921875,,,,,,,,,,
0,2018-10-30 16:38:06.7480,00:17,60,0,2018-10-30 16:38:07.1340,1540931887.133638,0.107920342117717,-0.0088661959010918,-0.20564237515708456,-0.0459136962890625,-0.05548095703125,-1.0043487548828125,40.9896240234375,28.794967651367188,-73.0399169921875,,,,,,,,,,
0,2018-10-30 16:38:06.7480,00:17,60,0,2018-10-30 16:38:07.1500,1540931887.150432,0.15102866436672063,-0.035007252529091586,-0.2635115340639614,-0.0522003173828125,-0.0928192138671875,-0.941070556640625,40.723663330078125,28.614608764648438,-72.98301696777344,,,,,,,,,,
0,2018-10-30 16:38:06.7480,00:17,60,0,2018-10-30 16:38:07.1670,1540931887.1671019,-0.02841113514118333,0.057535997454507895,-0.2547872846489708,-0.0753021240234375,-0.1678314208984375,-0.8748779296875,40.67718505859375,28.855697631835938,-73.44493103027344,,,,,,,,,,
0,2018-10-30 16:38:06.7480,00:17,60,0,2018-10-30 16:38:07.1840,1540931887.183713,-0.02841113514118333,0.057535997454507895,-0.2547872846489708,-0.0753021240234375,-0.1678314208984375,-0.8748779296875,40.42918395996094,28.90447998046875,-73.53466796875,,,,,,,,,,
0,2018-10-30 16:38:06.7480,00:17,60,0,2018-10-30 16:38:07.2020,1540931887.201717,-0.20629644752080803,0.21048879570881077,-0.2095795925126577,-0.077545166015625,-0.1928863525390625,-0.9237518310546875,40.312530517578125,29.238861083984375,-73.29437255859375,,,,,,,,,,
0,2018-10-30 16:38:06.7480,00:17,60,0,2018-10-30 16:38:07.2180,1540931887.2183971,-0.1909459869975913,0.28155631466201125,-0.16666115364937675,-0.0574493408203125,-0.1886138916015625,-0.972442626953125,40.35577392578125,28.997451782226562,-73.22296142578125,,,,,,,,,,
0,2018-10-30 16:38:06.7480,00:17,60,0,2018-10-30 16:38:07.2340,1540931887.23377,-0.1909459869975913,0.28155631466201125,-0.16666115364937675,-0.0574493408203125,-0.1886138916015625,-0.972442626953125,40.54193115234375,28.96087646484375,-73.13615417480469,,,,,,,,,,
0,2018-10-30 16:38:06.7480,00:17,60,0,2018-10-30 16:38:07.2500,1540931887.250245,-0.005408347541732917,0.28823126161818585,-0.11743794722144218,-0.021942138671875,-0.1683349609375,-1.0433197021484375,40.54193115234375,28.96087646484375,-73.13615417480469,,,,,,,,,,
0,2018-10-30 16:38:06.7480,00:17,60,0,2018-10-30 16:38:07.2670,1540931887.266973,0.07410671838919893,0.2268379416408072,-0.10254075671575694,-0.0088348388671875,-0.169952392578125,-1.0290985107421875,40.541290283203125,28.9608154296875,-73.2142333984375,,,,,,,,,,
0,2018-10-30 16:38:06.7480,00:17,60,0,2018-10-30 16:38:07.2840,1540931887.28367,0.07410671838919893,0.2268379416408072,-0.10254075671575694,-0.0088348388671875,-0.169952392578125,-1.0290985107421875,40.65203857421875,29.017013549804688,-73.05000305175781,,,,,,,,,,
0,2018-10-30 16:38:06.7480,00:17,60,0,2018-10-30 16:38:07.3000,1540931887.3003778,-0.019728963671416005,0.009236375292612814,-0.09850313818708781,-0.0096588134765625,-0.19403076171875,-0.964111328125,40.31318664550781,29.238937377929688,-73.21627807617188,,,,,,,,,,
0,2018-10-30 16:38:06.7480,00:17,60,0,2018-10-30 16:38:07.3190,1540931887.318541,-0.11302668719183494,-0.04819362835050993,-0.11889789213102363,-0.0108184814453125,-0.1956329345703125,-0.934356689453125,40.416290283203125,28.985092163085938,-73.37623596191406,,,,,,,,,,
0,2018-10-30 16:38:06.7480,00:17,60,0,2018-10-30 16:38:07.3340,1540931887.334439,-0.1705954415277508,-0.007557252225317854,-0.13489683237967465,-0.0202789306640625,-0.2000274658203125,-0.9300537109375,40.197998046875,28.873016357421875,-73.314208984375,,,,,,,,,,
0,2018-10-30 16:38:06.7480,00:17,60,0,2018-10-30 16:38:07.3500,1540931887.3503551,-0.15084171045819705,-0.03163222847963417,-0.11244318859699858,-0.005523681640625,-0.210723876953125,-0.976318359375,40.197998046875,28.873016357421875,-73.314208984375,,,,,,,,,,
0,2018-10-30 16:38:06.7480,00:17,60,0,2018-10-30 16:38:07.3670,1540931887.36697,-0.1003444477647686,-0.15645059403001293,-0.12545965474086987,-0.00732421875,-0.2136993408203125,-1.0068206787109375,40.17808532714844,28.643692016601562,-73.40190124511719,,,,,,,,,,
0,2018-10-30 16:38:06.7480,00:17,60,0,2018-10-30 16:38:07.3840,1540931887.3835921,-0.08849604407500607,-0.24835974535806454,-0.16091431833309475,-0.019134521484375,-0.224945068359375,-0.9930877685546875,39.75028991699219,29.038925170898438,-73.41046142578125,,,,,,,,,,
0,2018-10-30 16:38:06.7480,00:17,60,0,2018-10-30 16:38:07.4000,1540931887.400445,-0.14425012044414193,-0.235905472520309,-0.16623984156492622,-0.0325469970703125,-0.2355804443359375,-0.9853057861328125,39.36003112792969,28.8829345703125,-73.4375,,,,,,,,,,
0,2018-10-30 16:38:06.7480,00:17,60,0,2018-10-30 16:38:07.4170,1540931887.417151,-0.21064405800036237,-0.11745845356183579,-0.14466051356812315,-0.04534912109375,-0.251373291015625,-1.004913330078125,39.3458251953125,28.963424682617188,-73.43527221679688,,,,,,,,,,
0,2018-10-30 16:38:06.7480,00:17,60,0,2018-10-30 16:38:07.4350,1540931887.434699,-0.2314998051289909,0.026424416967984216,-0.10164353774450924,-0.038177490234375,-0.2577362060546875,-1.049468994140625,39.15118408203125,29.390304565429688,-73.42996215820312,,,,,,,,,,
0,2018-10-30 16:38:06.7480,00:17,60,0,2018-10-30 16:38:07.4510,1540931887.451477,-0.23013040769647217,0.17981131047997,-0.054336742036995705,-0.0214080810546875,-0.2501220703125,-1.0997314453125,39.11711120605469,29.241470336914062,-73.51544189453125,,,,,,,,,,
0,2018-10-30 16:38:06.7480,00:17,60,0,2018-10-30 16:38:07.4670,1540931887.4670281,-0.18529742232553323,0.2430845558708356,-0.026427080129074295,-0.006500244140625,-0.228607177734375,-1.182586669921875,39.11711120605469,29.241470336914062,-73.51544189453125,,,,,,,,,,
0,2018-10-30 16:38:06.7480,00:17,60,0,2018-10-30 16:38:07.4840,1540931887.483694,-0.08274574664930696,0.15779895248992007,-0.04261989850508309,0.00909423828125,-0.19964599609375,-1.253173828125,39.130645751953125,29.160919189453125,-73.59576416015625,,,,,,,,,,
0,2018-10-30 16:38:06.7480,00:17,60,0,2018-10-30 16:38:07.5010,1540931887.5005012,-0.003463973629866065,0.06622562577532744,-0.05346056203835964,0.0250091552734375,-0.1870880126953125,-1.26177978515625,38.96063232421875,29.117172241210938,-73.45048522949219,,,,,,,,,,
0,2018-10-30 16:38:06.7480,00:17,60,0,2018-10-30 16:38:07.5200,1540931887.519833,0.007536479568815236,0.12965653030272573,0.01622104788356363,0.039825439453125,-0.203948974609375,-1.2270050048828125,38.94136047363281,28.887908935546875,-73.4600830078125,,,,,,,,,,
0,2018-10-30 16:38:06.7480,00:17,60,0,2018-10-30 16:38:07.5350,1540931887.535259,-0.011548531751019608,0.25378353923411995,0.1266775183073631,0.0543365478515625,-0.2103271484375,-1.2171478271484375,39.24485778808594,28.517059326171875,-73.53546142578125,,,,,,,,,,
0,2018-10-30 16:38:06.7480,00:17,60,0,2018-10-30 16:38:07.5520,1540931887.551995,-0.022839535824628554,0.2927098996233721,0.15671238276516775,0.062347412109375,-0.1678924560546875,-1.234130859375,39.33247375488281,28.343582153320312,-73.84938049316406,,,,,,,,,,
0,2018-10-30 16:38:06.7480,00:17,60,0,2018-10-30 16:38:07.5690,1540931887.568583,-0.007403055198202267,0.2536152274532269,0.15880216527255292,0.0563201904296875,-0.1374969482421875,-1.2601470947265625,39.33247375488281,28.343582153320312,-73.84938049316406,,,,,,,,,,
0,2018-10-30 16:38:06.7480,00:17,60,0,2018-10-30 16:38:07.5850,1540931887.585274,0.053580936919631214,0.1264687264779009,0.1618432289213144,0.0699920654296875,-0.10345458984375,-1.2788238525390625,39.484527587890625,28.158187866210938,-73.84800720214844,,,,,,,,,,
0,2018-10-30 16:38:06.7480,00:17,60,0,2018-10-30 16:38:07.6020,1540931887.602114,0.09723520719210108,-0.045981873065199116,0.17554119798813694,0.1014556884765625,-0.066009521484375,-1.2721405029296875,39.29267883300781,27.884933471679688,-74.02473449707031,,,,,,,,,,
0,2018-10-30 16:38:06.7480,00:17,60,0,2018-10-30 16:38:07.6190,1540931887.618657,0.1255288969292119,-0.17707677667267666,0.1625223349992846,0.1030120849609375,-0.0297088623046875,-1.2359466552734375,39.301177978515625,27.49462890625,-74.11686706542969,,,,,,,,,,
0,2018-10-30 16:38:06.7480,00:17,60,0,2018-10-30 16:38:07.6350,1540931887.635353,0.18089068966977911,-0.23381329316794275,0.15280126438827737,0.090545654296875,-0.0245819091796875,-1.2182769775390625,38.98188781738281,26.9361572265625,-74.155029296875,,,,,,,,,,
0,2018-10-30 16:38:06.7480,00:17,60,0,2018-10-30 16:38:07.6520,1540931887.6520162,0.22877485870162184,-0.1824627536612529,0.17962462288755546,0.1117401123046875,-0.0020904541015625,-1.172088623046875,38.700439453125,26.836151123046875,-74.25212097167969,,,,,,,,,,
0,2018-10-30 16:38:06.7480,00:17,60,0,2018-10-30 16:38:07.6690,1540931887.6687999,0.24542840394621435,-0.2933237582546354,0.27371969683834413,0.149658203125,0.0331573486328125,-1.164337158203125,38.700439453125,26.836151123046875,-74.25212097167969,,,,,,,,,,
0,2018-10-30 16:38:06.7480,00:17,60,0,2018-10-30 16:38:07.6850,1540931887.685207,0.16720976483393307,-0.5167445979007619,0.34306894425622547,0.153167724609375,0.0798492431640625,-1.113433837890625,38.429443359375,26.3460693359375,-74.20706176757812,,,,,,,,,,
0,2018-10-30 16:38:06.7480,00:17,60,0,2018-10-30 16:38:07.7020,1540931887.702069,0.02024801376787245,-0.6742149163121662,0.31399681253248446,0.114044189453125,0.1175537109375,-1.0472259521484375,38.113250732421875,26.097152709960938,-74.46769714355469,,,,,,,,,,
0,2018-10-30 16:38:06.7480,00:17,60,0,2018-10-30 16:38:07.7210,1540931887.721,0.0006889597740034989,-0.5025137302998145,-0.11091879518903722,0.0427093505859375,0.138153076171875,-0.9456024169921875,37.55607604980469,26.206985473632812,-74.57197570800781,,,,,,,,,,
0,2018-10-30 16:38:06.7480,00:17,60,0,2018-10-30 16:38:07.7370,1540931887.737258,0.0006889597740034989,-0.5025137302998145,-0.11091879518903722,0.0427093505859375,0.138153076171875,-0.9456024169921875,37.28443908691406,25.716812133789062,-74.60501098632812,,,,,,,,,,
0,2018-10-30 16:38:06.7480,00:17,60,0,2018-10-30 16:38:07.7540,1540931887.7537808,0.18046751337256553,-0.2571311327243495,-0.23595021362662233,0.0533294677734375,0.0636138916015625,-0.930328369140625,36.872955322265625,25.331344604492188,-74.87591552734375,,,,,,,,,,
0,2018-10-30 16:38:06.7480,00:17,60,0,2018-10-30 16:38:07.7700,1540931887.7696939,0.472281525605235,0.08227836187799806,-0.07068908376230024,0.108734130859375,-0.100738525390625,-0.8630828857421875,36.61668395996094,25.070037841796875,-75.36795043945312,,,,,,,,,,
0,2018-10-30 16:38:06.7480,00:17,60,0,2018-10-30 16:38:07.7850,1540931887.78493,0.472281525605235,0.08227836187799806,-0.07068908376230024,0.108734130859375,-0.100738525390625,-0.8630828857421875,36.61668395996094,25.070037841796875,-75.36795043945312,,,,,,,,,,
0,2018-10-30 16:38:06.7480,00:17,60,0,2018-10-30 16:38:07.8010,1540931887.800616,0.43307766383039653,0.20325511755593753,0.06439816463531507,0.092254638671875,-0.1388397216796875,-0.8206939697265625,36.65550231933594,24.518936157226562,-75.23020935058594,,,,,,,,,,
0,2018-10-30 16:38:06.7480,00:17,60,0,2018-10-30 16:38:07.8180,1540931887.8176441,0.3152836519712108,0.3662501636487112,0.15886341797762474,0.0513763427734375,-0.1332855224609375,-0.7906341552734375,36.971221923828125,24.0673828125,-75.54209899902344,,,,,,,,,,
0,2018-10-30 16:38:06.7480,00:17,60,0,2018-10-30 16:38:07.8360,1540931887.8355188,0.22986355895524624,0.4784158508601235,0.17401440773519453,0.0117645263671875,-0.1047515869140625,-0.8067474365234375,37.35008239746094,23.603744506835938,-75.69485473632812,,,,,,,,,,
0,2018-10-30 16:38:06.7480,00:17,60,0,2018-10-30 16:38:07.8520,1540931887.852207,0.31312968728155466,0.14024445984855374,0.15108911812346543,0.0515899658203125,-0.0737152099609375,-0.92919921875,37.436553955078125,23.120925903320312,-75.55201721191406,,,,,,,,,,
0,2018-10-30 16:38:06.7480,00:17,60,0,2018-10-30 16:38:07.8690,1540931887.86896,0.31312968728155466,0.14024445984855374,0.15108911812346543,0.0515899658203125,-0.0737152099609375,-0.92919921875,37.383209228515625,22.742828369140625,-75.64706420898438,,,,,,,,,,
0,2018-10-30 16:38:06.7480,00:17,60,0,2018-10-30 16:38:07.8850,1540931887.885316,0.3388310560135824,-0.14877909219393068,0.14751382436003405,0.06317138671875,-0.0976409912109375,-0.9030914306640625,37.383209228515625,22.742828369140625,-75.64706420898438,,,,,,,,,,
0,2018-10-30 16:38:06.7480,00:17,60,0,2018-10-30 16:38:07.9020,1540931887.9021869,0.11677109168448634,-0.2804439122746852,0.33694740217456937,0.0537261962890625,-0.170562744140625,-0.77374267578125,37.125091552734375,22.172073364257812,-75.76042175292969,,,,,,,,,,
0,2018-10-30 16:38:06.7480,00:17,60,0,2018-10-30 16:38:07.9190,1540931887.918639,0.11677109168448634,-0.2804439122746852,0.33694740217456937,0.0537261962890625,-0.170562744140625,-0.77374267578125,36.90354919433594,22.059677124023438,-76.08888244628906,,,,,,,,,,
0,2018-10-30 16:38:06.7480,00:17,60,0,2018-10-30 16:38:07.9350,1540931887.9354649,-0.02567234027614584,-0.15832199732801164,0.43350989487531644,0.032928466796875,-0.158782958984375,-0.7589111328125,37.10453796386719,21.942672729492188,-75.92619323730469,,,,,,,,,,
0,2018-10-30 16:38:06.7480,00:17,60,0,2018-10-30 16:38:07.9520,1540931887.952231,0.02035267599871256,0.01337492762659595,0.39301786208120665,0.022247314453125,-0.0907135009765625,-0.8773345947265625,37.11744689941406,21.862045288085938,-76.08460998535156,,,,,,,,,,
0,2018-10-30 16:38:06.7480,00:17,60,0,2018-10-30 16:38:07.9690,1540931887.968853,0.02035267599871256,0.01337492762659595,0.39301786208120665,0.022247314453125,-0.0907135009765625,-0.8773345947265625,37.15303039550781,21.310653686523438,-76.33738708496094,,,,,,,,,,
0,2018-10-30 16:38:06.7480,00:17,60,0,2018-10-30 16:38:07.9850,1540931887.985445,0.1373354889898602,-0.009097358283710678,0.3222851024770291,0.0462493896484375,-0.1105499267578125,-0.923675537109375,37.15303039550781,21.310653686523438,-76.33738708496094,,,,,,,,,,
0,2018-10-30 16:38:06.7480,00:17,60,0,2018-10-30 16:38:08.0020,1540931888.002287,0.1442455930702888,0.04503245613658587,0.29343694260096376,0.05218505859375,-0.113922119140625,-0.9380035400390625,36.87548828125,21.211029052734375,-75.96589660644531,,,,,,,,,,
0,2018-10-30 16:38:06.7480,00:17,60,0,2018-10-30 16:38:08.0190,1540931888.018821,0.1442455930702888,0.04503245613658587,0.29343694260096376,0.05218505859375,-0.113922119140625,-0.9380035400390625,37.11712646484375,20.852371215820312,-76.04415893554688,,,,,,,,,,
0,2018-10-30 16:38:06.7480,00:17,60,0,2018-10-30 16:38:08.0360,1540931888.035524,0.1396279380562004,0.30089352733707664,0.15454164016064414,0.025726318359375,-0.108978271484375,-0.931976318359375,37.19056701660156,20.7593994140625,-76.35588073730469,,,,,,,,,,
0,2018-10-30 16:38:06.7480,00:17,60,0,2018-10-30 16:38:08.0520,1540931888.0522199,0.13633094462668233,0.3695420970721581,0.03576145974980203,0.0213775634765625,-0.10882568359375,-0.9683990478515625,37.53727722167969,20.147125244140625,-76.35981750488281,,,,,,,,,,
0,2018-10-30 16:38:06.7480,00:17,60,0,2018-10-30 16:38:08.0710,1540931888.070919,0.1513969795454786,0.35824949510189513,-0.1516569040678703,0.0114288330078125,-0.107147216796875,-1.0448760986328125,37.5855712890625,20.215469360351562,-76.27658081054688,,,,,,,,,,
0,2018-10-30 16:38:06.7480,00:17,60,0,2018-10-30 16:38:08.0860,1540931888.0861402,0.1483354095563235,0.3244427955922113,-0.3455238461490605,0.02215576171875,-0.11724853515625,-1.1111297607421875,37.79310607910156,19.707962036132812,-76.4403076171875,,,,,,,,,,
0,2018-10-30 16:38:06.7480,00:17,60,0,2018-10-30 16:38:08.1010,1540931888.1007109,0.1483354095563235,0.3244427955922113,-0.3455238461490605,0.02215576171875,-0.11724853515625,-1.1111297607421875,37.79310607910156,19.707962036132812,-76.4403076171875,,,,,,,,,,
0,2018-10-30 16:38:06.7480,00:17,60,0,2018-10-30 16:38:08.1180,1540931888.1176171,0.14000637324710066,0.07325317525982854,-0.5321616374512307,0.1038818359375,-0.155609130859375,-1.2400665283203125,37.48651123046875,19.769256591796875,-76.1424560546875,,,,,,,,,,
0,2018-10-30 16:38:06.7480,00:17,60,0,2018-10-30 16:38:08.1340,1540931888.134151,0.15648148669865786,-0.1971402333770066,-0.5742627521759663,0.1333160400390625,-0.1539459228515625,-1.2837982177734375,37.21617126464844,19.27923583984375,-76.019287109375,,,,,,,,,,
0,2018-10-30 16:38:06.7480,00:17,60,0,2018-10-30 16:38:08.1510,1540931888.150816,0.15648148669865786,-0.1971402333770066,-0.5742627521759663,0.1333160400390625,-0.1539459228515625,-1.2837982177734375,36.83882141113281,19.0426025390625,-76.20474243164062,,,,,,,,,,
0,2018-10-30 16:38:06.7480,00:17,60,0,2018-10-30 16:38:08.1670,1540931888.167481,0.02617541140606181,-0.6076742385798825,-0.6518398357816475,0.0863189697265625,-0.1503753662109375,-1.2491302490234375,36.26564025878906,18.923477172851562,-75.92811584472656,,,,,,,,,,
0,2018-10-30 16:38:06.7480,00:17,60,0,2018-10-30 16:38:08.1840,1540931888.18404,-0.16385791028595934,-0.39204713986387274,-0.5626465761332586,0.0585784912109375,-0.1714324951171875,-1.250579833984375,35.641571044921875,18.73577880859375,-76.047119140625,,,,,,,,,,
0,2018-10-30 16:38:06.7480,00:17,60,0,2018-10-30 16:38:08.2010,1540931888.200711,-0.16385791028595934,-0.39204713986387274,-0.5626465761332586,0.0585784912109375,-0.1714324951171875,-1.250579833984375,35.641571044921875,18.73577880859375,-76.047119140625,,,,,,,,,,
0,2018-10-30 16:38:06.7480,00:17,60,0,2018-10-30 16:38:08.2170,1540931888.217273,-0.184818852277646,-0.12209048964581061,-0.4006084038201505,0.0353546142578125,-0.0602569580078125,-1.3385467529296875,35.53910827636719,18.989669799804688,-75.80906677246094,,,,,,,,,,
0,2018-10-30 16:38:06.7480,00:17,60,0,2018-10-30 16:38:08.2340,1540931888.234379,0.021005949414109,-0.24035295154074132,-0.5325198326178463,0.0317535400390625,0.054290771484375,-1.304107666015625,35.04441833496094,19.087356567382812,-75.83233642578125,,,,,,,,,,
0,2018-10-30 16:38:06.7480,00:17,60,0,2018-10-30 16:38:08.2510,1540931888.250698,0.19094332383650123,-0.2501528517200149,-0.6535802115540142,0.0298004150390625,0.061798095703125,-1.179107666015625,34.66639709472656,18.850662231445312,-76.09590148925781,,,,,,,,,,
0,2018-10-30 16:38:06.7480,00:17,60,0,2018-10-30 16:38:08.2680,1540931888.2675529,0.29212933050573486,-0.25117976663634944,-0.6396846359343078,0.036407470703125,-0.0212249755859375,-1.07952880859375,34.43553161621094,17.8095703125,-75.75691223144531,,,,,,,,,,
0,2018-10-30 16:38:06.7480,00:17,60,0,2018-10-30 16:38:08.2840,1540931888.284141,0.25958203987554945,-0.21128907561637958,-0.5293288329997133,0.0408477783203125,-0.08251953125,-0.987060546875,34.16893005371094,17.629150390625,-75.77813720703125,,,,,,,,,,
0,2018-10-30 16:38:06.7480,00:17,60,0,2018-10-30 16:38:08.3020,1540931888.301872,0.15941123021385403,-0.18589183988083893,-0.4189746279617729,0.019805908203125,-0.10888671875,-0.931427001953125,34.16893005371094,17.629150390625,-75.77813720703125,,,,,,,,,,
0,2018-10-30 16:38:06.7480,00:17,60,0,2018-10-30 16:38:08.3170,1540931888.3173618,0.03256540012559793,-0.2086410945445138,-0.3761376818278484,0.0010986328125,-0.0922393798828125,-0.8854217529296875,33.796630859375,17.702285766601562,-75.95176696777344,,,,,,,,,,
0,2018-10-30 16:38:06.7480,00:17,60,0,2018-10-30 16:38:08.3360,1540931888.3362231,-0.04971748912625327,-0.21218203352988316,-0.37505137841920505,-0.008514404296875,-0.0836181640625,-0.850677490234375,33.364410400390625,17.787826538085938,-75.89404296875,,,,,,,,,,
0,2018-10-30 16:38:06.7480,00:17,60,0,2018-10-30 16:38:08.3510,1540931888.3514361,-0.0312535269726249,-0.14335902674340142,-0.31928611677349084,0.0114898681640625,-0.0835113525390625,-0.8369293212890625,33.162261962890625,17.595443725585938,-75.5999755859375,,,,,,,,,,
0,2018-10-30 16:38:06.7480,00:17,60,0,2018-10-30 16:38:08.3670,1540931888.3674312,0.028297950794854962,-0.06329401804736821,-0.19819431253645997,0.025238037109375,-0.08905029296875,-0.82305908203125,33.18623352050781,17.124771118164062,-75.53814697265625,,,,,,,,,,
0,2018-10-30 16:38:06.7480,00:17,60,0,2018-10-30 16:38:08.3840,1540931888.384278,0.043908602156572434,-0.06168333822008829,-0.097535079130844,0.0210723876953125,-0.09527587890625,-0.79840087890625,33.1534423828125,16.97607421875,-75.4674072265625,,,,,,,,,,
0,2018-10-30 16:38:06.7480,00:17,60,0,2018-10-30 16:38:08.4010,1540931888.400912,-0.0338615606281395,-0.13253301059612033,-0.04513152572913682,0.0080108642578125,-0.09613037109375,-0.7452239990234375,33.1534423828125,16.97607421875,-75.4674072265625,,,,,,,,,,
0,2018-10-30 16:38:06.7480,00:17,60,0,2018-10-30 16:38:08.4180,1540931888.4176168,-0.14721421873740012,-0.18449527820520137,-0.03231799246032957,-0.0291595458984375,-0.104644775390625,-0.70831298828125,32.9556884765625,17.0933837890625,-75.23960876464844,,,,,,,,,,
0,2018-10-30 16:38:06.7480,00:17,60,0,2018-10-30 16:38:08.4360,1540931888.435534,-0.22789867870298577,-0.12648550439276837,-0.009738913790310767,-0.0513763427734375,-0.12066650390625,-0.718963623046875,32.87835693359375,17.185958862304688,-75.39649963378906,,,,,,,,,,
0,2018-10-30 16:38:06.7480,00:17,60,0,2018-10-30 16:38:08.4510,1540931888.451108,-0.23148968511684861,-0.054107443867139886,0.02140622252594791,-0.056396484375,-0.1300048828125,-0.7689361572265625,32.76953125,17.12994384765625,-75.32643127441406,,,,,,,,,,
0,2018-10-30 16:38:06.7480,00:17,60,0,2018-10-30 16:38:08.4680,1540931888.4676418,-0.18411444616932005,-0.06850742219730734,-0.007536213252706228,-0.0621490478515625,-0.120697021484375,-0.825927734375,32.84490966796875,17.037185668945312,-75.40383911132812,,,,,,,,,,
0,2018-10-30 16:38:06.7480,00:17,60,0,2018-10-30 16:38:08.4840,1540931888.484222,-0.13918425541859322,-0.12281779893951125,-0.05794452636572605,-0.067840576171875,-0.125274658203125,-0.856292724609375,32.5518798828125,17.017929077148438,-75.18632507324219,,,,,,,,,,
0,2018-10-30 16:38:06.7480,00:17,60,0,2018-10-30 16:38:08.5010,1540931888.501203,-0.1208332112951842,-0.18683459890672696,-0.051602740861920356,-0.064117431640625,-0.1458740234375,-0.8882598876953125,32.55253601074219,17.017990112304688,-75.10823059082031,,,,,,,,,,
0,2018-10-30 16:38:06.7480,00:17,60,0,2018-10-30 16:38:08.5180,1540931888.517602,-0.19002559852485992,-0.2490066271868448,-0.02596209220274646,-0.080352783203125,-0.146942138671875,-0.9380340576171875,32.55253601074219,17.017990112304688,-75.10823059082031,,,,,,,,,,
0,2018-10-30 16:38:06.7480,00:17,60,0,2018-10-30 16:38:08.5340,1540931888.5342212,-0.3837910741685181,-0.24779142678144164,-0.13514184319996195,-0.11346435546875,-0.1013641357421875,-0.9503021240234375,32.49134826660156,17.030258178710938,-75.03303527832031,,,,,,,,,,
0,2018-10-30 16:38:06.7480,00:17,60,0,2018-10-30 16:38:08.5520,1540931888.551961,-0.5727703167010859,-0.20308360998173644,-0.312804248996347,-0.1256256103515625,-0.0898590087890625,-0.9939117431640625,32.34059143066406,17.2158203125,-74.87820434570312,,,,,,,,,,
0,2018-10-30 16:38:06.7480,00:17,60,0,2018-10-30 16:38:08.5690,1540931888.56881,-0.5671161593907387,-0.28831941225026747,-0.3793041803639526,-0.0848846435546875,-0.1116943359375,-1.121429443359375,31.857955932617188,17.933181762695312,-74.64356994628906,,,,,,,,,,
0,2018-10-30 16:38:06.7480,00:17,60,0,2018-10-30 16:38:08.5840,1540931888.584413,-0.39600992356591064,-0.4356385595346167,-0.19426801414135614,-0.02117919921875,-0.170501708984375,-1.2823638916015625,31.746673583984375,17.56768798828125,-74.27293395996094,,,,,,,,,,
0,2018-10-30 16:38:06.7480,00:17,60,0,2018-10-30 16:38:08.6010,1540931888.601315,-0.1519461233622529,-0.5556475224724214,0.018626681296232208,0.009918212890625,-0.167694091796875,-1.34271240234375,31.354461669921875,17.411514282226562,-74.53427124023438,,,,,,,,,,
0,2018-10-30 16:38:06.7480,00:17,60,0,2018-10-30 16:38:08.6180,1540931888.617721,-0.05310822582614215,-0.4499538493421197,0.1279611619527813,-0.019927978515625,-0.1212158203125,-1.272705078125,31.354461669921875,17.411514282226562,-74.53427124023438,,,,,,,,,,
0,2018-10-30 16:38:06.7480,00:17,60,0,2018-10-30 16:38:08.6340,1540931888.63428,0.08473193219028807,0.051962800241299074,0.05572851002267112,-0.1286468505859375,-0.06048583984375,-1.2272796630859375,31.092926025390625,17.540847778320312,-74.54368591308594,,,,,,,,,,
0,2018-10-30 16:38:06.7480,00:17,60,0,2018-10-30 16:38:08.6510,1540931888.6512241,0.08473193219028807,0.051962800241299074,0.05572851002267112,-0.1286468505859375,-0.06048583984375,-1.2272796630859375,31.230804443359375,17.435928344726562,-74.54008483886719,,,,,,,,,,
0,2018-10-30 16:38:06.7480,00:17,60,0,2018-10-30 16:38:08.6680,1540931888.667753,0.28854711252346926,0.2871659971821542,-0.015778164194283455,-0.122833251953125,-0.047698974609375,-1.2310028076171875,31.411880493164062,17.089599609375,-74.465087890625,,,,,,,,,,
0,2018-10-30 16:38:06.7480,00:17,60,0,2018-10-30 16:38:08.6840,1540931888.684394,0.4553363642212788,0.6224294825994664,0.4043730483370865,0.0385894775390625,-0.1602325439453125,-1.1727142333984375,31.777862548828125,16.706573486328125,-74.45944213867188,,,,,,,,,,
0,2018-10-30 16:38:06.7480,00:17,60,0,2018-10-30 16:38:08.7010,1540931888.7010942,0.4553363642212788,0.6224294825994664,0.4043730483370865,0.0385894775390625,-0.1602325439453125,-1.1727142333984375,32.56182861328125,16.318527221679688,-74.50929260253906,,,,,,,,,,
0,2018-10-30 16:38:06.7480,00:17,60,0,2018-10-30 16:38:08.7180,1540931888.717671,0.1267688647327528,0.7538426339572084,0.7879827612353701,0.0530853271484375,-0.1894989013671875,-1.12945556640625,32.56182861328125,16.318527221679688,-74.50929260253906,,,,,,,,,,
0,2018-10-30 16:38:06.7480,00:17,60,0,2018-10-30 16:38:08.7340,1540931888.7343721,-0.19781108365559755,0.5727546040506544,0.8702938799947763,0.0003814697265625,-0.099517822265625,-1.1722869873046875,33.39848327636719,16.3084716796875,-74.54222106933594,,,,,,,,,,
0,2018-10-30 16:38:06.7480,00:17,60,0,2018-10-30 16:38:08.7510,1540931888.7510371,-0.2225353385836752,0.22820068117060074,0.5389785308935064,-0.069366455078125,0.0850067138671875,-1.20770263671875,33.372039794921875,16.469635009765625,-74.30348205566406,,,,,,,,,,
0,2018-10-30 16:38:06.7480,00:17,60,0,2018-10-30 16:38:08.7680,1540931888.767668,0.3810115329388024,-0.11964837092620795,-0.2058447753999306,-0.0402679443359375,0.1161041259765625,-1.0686798095703125,33.44743347167969,16.376876831054688,-74.38088989257812,,,,,,,,,,
0,2018-10-30 16:38:06.7480,00:17,60,0,2018-10-30 16:38:08.7850,1540931888.785362,0.5066410973572193,0.014201306512847537,-0.16930061260575427,0.021575927734375,-0.020263671875,-0.9483184814453125,33.0997314453125,15.979415893554688,-74.41461181640625,,,,,,,,,,
0,2018-10-30 16:38:06.7480,00:17,60,0,2018-10-30 16:38:08.8020,1540931888.80216,0.5066410973572193,0.014201306512847537,-0.16930061260575427,0.021575927734375,-0.020263671875,-0.9483184814453125,33.35868835449219,15.849822998046875,-74.71757507324219,,,,,,,,,,
0,2018-10-30 16:38:06.7480,00:17,60,0,2018-10-30 16:38:08.8180,1540931888.8177009,0.3555783445285457,0.13288694470499185,-0.004205131361235117,0.0460052490234375,-0.1082305908203125,-0.8252105712890625,33.51988220214844,15.274139404296875,-74.73023986816406,,,,,,,,,,
0,2018-10-30 16:38:06.7480,00:17,60,0,2018-10-30 16:38:08.8340,1540931888.834346,0.3555783445285457,0.13288694470499185,-0.004205131361235117,0.0460052490234375,-0.1082305908203125,-0.8252105712890625,33.51988220214844,15.274139404296875,-74.73023986816406,,,,,,,,,,
0,2018-10-30 16:38:06.7480,00:17,60,0,2018-10-30 16:38:08.8510,1540931888.851033,0.23486950285626818,0.204110258581962,0.05588004388869662,0.05316162109375,-0.096435546875,-0.7705841064453125,33.79820251464844,15.064590454101562,-74.41067504882812,,,,,,,,,,
0,2018-10-30 16:38:06.7480,00:17,60,0,2018-10-30 16:38:08.8680,1540931888.867773,0.1837503920483062,0.5303815805786217,0.27260889234767205,0.0704498291015625,-0.095489501953125,-0.7683258056640625,34.0294189453125,15.096038818359375,-74.63108825683594,,,,,,,,,,
0,2018-10-30 16:38:06.7480,00:17,60,0,2018-10-30 16:38:08.8840,1540931888.884273,0.1837503920483062,0.5303815805786217,0.27260889234767205,0.0704498291015625,-0.095489501953125,-0.7683258056640625,34.3818359375,14.7935791015625,-74.54512023925781,,,,,,,,,,
0,2018-10-30 16:38:06.7480,00:17,60,0,2018-10-30 16:38:08.9010,1540931888.9010382,0.28212037218089003,0.3667761379640018,0.3773278485190048,0.0675048828125,-0.0710601806640625,-0.872955322265625,34.91975402832031,14.454483032226562,-74.450439453125,,,,,,,,,,
0,2018-10-30 16:38:06.7480,00:17,60,0,2018-10-30 16:38:08.9180,1540931888.917784,0.27413781312948654,0.0686070244220763,0.3073559540382629,0.0587158203125,-0.057098388671875,-0.856475830078125,35.05827331542969,14.349639892578125,-74.36872863769531,,,,,,,,,,
0,2018-10-30 16:38:06.7480,00:17,60,0,2018-10-30 16:38:08.9340,1540931888.93435,0.27413781312948654,0.0686070244220763,0.3073559540382629,0.0587158203125,-0.057098388671875,-0.856475830078125,35.05827331542969,14.349639892578125,-74.36872863769531,,,,,,,,,,
0,2018-10-30 16:38:06.7480,00:17,60,0,2018-10-30 16:38:08.9510,1540931888.951185,0.16083309191984735,-0.3195305949615601,0.2683534272418344,0.0453338623046875,-0.12481689453125,-0.784881591796875,35.0667724609375,13.959320068359375,-74.46086120605469,,,,,,,,,,
0,2018-10-30 16:38:06.7480,00:17,60,0,2018-10-30 16:38:08.9680,1540931888.967864,0.09289878198912506,-0.35902660550798027,0.30044691522227035,0.030792236328125,-0.1585845947265625,-0.7630157470703125,34.914703369140625,14.14471435546875,-74.46223449707031,,,,,,,,,,
0,2018-10-30 16:38:06.7480,00:17,60,0,2018-10-30 16:38:08.9840,1540931888.9843988,0.09289878198912506,-0.35902660550798027,0.30044691522227035,0.030792236328125,-0.1585845947265625,-0.7630157470703125,34.572723388671875,14.05706787109375,-74.40603637695312,,,,,,,,,,
0,2018-10-30 16:38:06.7480,00:17,60,0,2018-10-30 16:38:09.0010,1540931889.001066,-0.20438962418031129,-0.2734310101761795,0.16569549143811402,-0.0008392333984375,-0.1871337890625,-0.7273406982421875,34.56962585449219,13.74749755859375,-74.18356323242188,,,,,,,,,,
0,2018-10-30 16:38:06.7480,00:17,60,0,2018-10-30 16:38:09.0190,1540931889.019082,-0.3038930456728329,-0.08763211461738436,0.19379104199012295,0.0179443359375,-0.24237060546875,-0.806365966796875,34.479400634765625,13.920684814453125,-74.1820068359375,,,,,,,,,,
0,2018-10-30 16:38:06.7480,00:17,60,0,2018-10-30 16:38:09.0340,1540931889.034449,-0.24970117959913746,-0.05125759518464609,0.16383873552611078,0.0311279296875,-0.2005462646484375,-0.92523193359375,34.479400634765625,13.920684814453125,-74.1820068359375,,,,,,,,,,
0,2018-10-30 16:38:06.7480,00:17,60,0,2018-10-30 16:38:09.0510,1540931889.051116,-0.13224245972119267,-0.1428032250239019,0.05446963377539066,0.030181884765625,-0.1788482666015625,-1.030059814453125,34.5908203125,13.976974487304688,-73.939697265625,,,,,,,,,,
0,2018-10-30 16:38:06.7480,00:17,60,0,2018-10-30 16:38:09.0680,1540931889.0678759,-0.07702687452447081,-0.22531274928451883,-0.0013302489644945795,0.0362701416015625,-0.2220916748046875,-1.085418701171875,34.36650085449219,14.564697265625,-74.08612060546875,,,,,,,,,,
0,2018-10-30 16:38:06.7480,00:17,60,0,2018-10-30 16:38:09.0840,1540931889.084398,-0.1287952640061941,-0.24413916766250698,-0.0377503084518732,0.0146026611328125,-0.247314453125,-1.1221771240234375,34.44316101074219,14.472061157226562,-74.00735473632812,,,,,,,,,,
0,2018-10-30 16:38:06.7480,00:17,60,0,2018-10-30 16:38:09.1010,1540931889.101229,-0.1602775565164568,-0.1375093934090424,-0.12006755248178642,-0.0088653564453125,-0.2296142578125,-1.1792449951171875,34.34657287597656,14.335357666015625,-74.17379760742188,,,,,,,,,,
0,2018-10-30 16:38:06.7480,00:17,60,0,2018-10-30 16:38:09.1180,1540931889.117879,-0.11808882379185755,0.054040332207669885,-0.24727397458163924,-0.0381317138671875,-0.1579437255859375,-1.2716827392578125,34.28733825683594,14.347824096679688,-73.86433410644531,,,,,,,,,,
0,2018-10-30 16:38:06.7480,00:17,60,0,2018-10-30 16:38:09.1350,1540931889.134733,-0.0018522285381501102,0.28252144424105596,-0.32090957977400314,-0.0348052978515625,-0.133270263671875,-1.3930511474609375,34.41038513183594,14.323333740234375,-73.93661499023438,,,,,,,,,,
0,2018-10-30 16:38:06.7480,00:17,60,0,2018-10-30 16:38:09.1510,1540931889.1514812,0.23317839556406786,0.03502722623726718,-0.3930191936617517,0.005218505859375,-0.1195220947265625,-1.54217529296875,34.41038513183594,14.323333740234375,-73.93661499023438,,,,,,,,,,
0,2018-10-30 16:38:06.7480,00:17,60,0,2018-10-30 16:38:09.1680,1540931889.167904,0.3073831182813817,-0.4920946451670975,-0.47721449889238876,0.0399017333984375,-0.0859375,-1.536285400390625,34.02644348144531,14.47723388671875,-73.79563903808594,,,,,,,,,,
0,2018-10-30 16:38:06.7480,00:17,60,0,2018-10-30 16:38:09.1840,1540931889.18449,0.21950998758534518,-0.7635554487688364,-0.5428507671184817,-0.02093505859375,-0.079925537109375,-1.3941192626953125,33.8951416015625,14.191650390625,-74.12564086914062,,,,,,,,,,
0,2018-10-30 16:38:06.7480,00:17,60,0,2018-10-30 16:38:09.2010,1540931889.201236,0.15120123720535775,-0.7295455500679795,-0.4988870375273446,-0.0937347412109375,-0.097930908203125,-1.30316162109375,33.16484069824219,13.94818115234375,-73.86221313476562,,,,,,,,,,
0,2018-10-30 16:38:06.7480,00:17,60,0,2018-10-30 16:38:09.2180,1540931889.217873,0.09531906278778907,-0.49562573045643354,-0.4375459155073315,-0.141143798828125,-0.0716552734375,-1.2115936279296875,32.91438293457031,13.687454223632812,-73.65138244628906,,,,,,,,,,
0,2018-10-30 16:38:06.7480,00:17,60,0,2018-10-30 16:38:09.2350,1540931889.23459,0.027685956376354754,-0.17068652163703152,-0.3889400298200773,-0.1517181396484375,-0.0204010009765625,-1.1151275634765625,32.85255432128906,13.699661254882812,-73.654296875,,,,,,,,,,
0,2018-10-30 16:38:06.7480,00:17,60,0,2018-10-30 16:38:09.2510,1540931889.251326,-0.009589244137048312,0.13443663814330895,-0.32644469378362384,-0.146148681640625,-0.003662109375,-1.0404815673828125,32.85255432128906,13.699661254882812,-73.654296875,,,,,,,,,,
0,2018-10-30 16:38:06.7480,00:17,60,0,2018-10-30 16:38:09.2680,1540931889.268005,0.010720288652004965,0.39788878371496156,-0.2597311768965939,-0.12799072265625,0.0064697265625,-1.0030059814453125,32.9954833984375,13.904525756835938,-73.63888549804688,,,,,,,,,,
0,2018-10-30 16:38:06.7480,00:17,60,0,2018-10-30 16:38:09.2860,1540931889.28568,0.06503599171638905,0.45893349590564886,-0.2382517174406688,-0.108551025390625,0.0202178955078125,-0.9999237060546875,33.104949951171875,13.960586547851562,-73.63082885742188,,,,,,,,,,
0,2018-10-30 16:38:06.7480,00:17,60,0,2018-10-30 16:38:09.3030,1540931889.3025532,0.08837114181988134,0.35289600867861787,-0.2844351918003869,-0.0847930908203125,0.0317840576171875,-0.9616546630859375,33.32586669921875,14.072921752929688,-73.38046264648438,,,,,,,,,,
0,2018-10-30 16:38:06.7480,00:17,60,0,2018-10-30 16:38:09.3180,1540931889.3184109,0.006046440938915903,0.22514603540027986,-0.3274074265176875,-0.057464599609375,0.0168609619140625,-0.8734893798828125,33.52294921875,13.955535888671875,-73.68635559082031,,,,,,,,,,
0,2018-10-30 16:38:06.7480,00:17,60,0,2018-10-30 16:38:09.3350,1540931889.3347712,-0.12629002836875655,0.18186034662267697,-0.2749567351646859,-0.0133514404296875,-0.038330078125,-0.796112060546875,33.614471435546875,13.782470703125,-73.53167724609375,,,,,,,,,,
0,2018-10-30 16:38:06.7480,00:17,60,0,2018-10-30 16:38:09.3530,1540931889.352989,-0.154469202178994,0.12123082124593304,-0.19256838473366758,0.0063018798828125,-0.0721588134765625,-0.7818145751953125,33.54481506347656,14.185073852539062,-73.36436462402344,,,,,,,,,,
0,2018-10-30 16:38:06.7480,00:17,60,0,2018-10-30 16:38:09.3700,1540931889.3700151,-0.09324392766639933,0.025341575668758,-0.16271727839107838,-0.004669189453125,-0.057525634765625,-0.759918212890625,33.54481506347656,14.185073852539062,-73.36436462402344,,,,,,,,,,
0,2018-10-30 16:38:06.7480,00:17,60,0,2018-10-30 16:38:09.3850,1540931889.3848839,-0.10587929545828027,0.028681978624044386,-0.15628494541021,-0.0134124755859375,-0.04803466796875,-0.673370361328125,33.42243957519531,14.209625244140625,-73.21400451660156,,,,,,,,,,
0,2018-10-30 16:38:06.7480,00:17,60,0,2018-10-30 16:38:09.4030,1540931889.4027271,-0.27135214662926366,0.15238501230989798,-0.12932097200537573,-0.02239990234375,-0.0804290771484375,-0.6018218994140625,33.64398193359375,14.322006225585938,-72.88552856445312,,,,,,,,,,
0,2018-10-30 16:38:06.7480,00:17,60,0,2018-10-30 16:38:09.4180,1540931889.4180942,-0.4060135555685753,0.19247410883107877,-0.09390066319121287,-0.029754638671875,-0.104888916015625,-0.6484222412109375,33.66633605957031,14.860824584960938,-73.09841918945312,,,,,,,,,,
0,2018-10-30 16:38:06.7480,00:17,60,0,2018-10-30 16:38:09.4360,1540931889.435724,-0.4262892662117846,0.05534288429682764,-0.10370269389935852,-0.0422821044921875,-0.096405029296875,-0.71942138671875,33.839599609375,14.904891967773438,-72.85317993164062,,,,,,,,,,
0,2018-10-30 16:38:06.7480,00:17,60,0,2018-10-30 16:38:09.4510,1540931889.4514709,-0.36902198171126566,-0.1492968107098421,-0.18749612812150265,-0.0605316162109375,-0.0824127197265625,-0.75042724609375,33.839599609375,14.904891967773438,-72.85317993164062,,,,,,,,,,
0,2018-10-30 16:38:06.7480,00:17,60,0,2018-10-30 16:38:09.4680,1540931889.468034,-0.28496356296065867,-0.18144888823425973,-0.19291033461763374,-0.05010986328125,-0.1110992431640625,-0.76104736328125,33.67335510253906,15.170791625976562,-72.85232543945312,,,,,,,,,,
0,2018-10-30 16:38:06.7480,00:17,60,0,2018-10-30 16:38:09.4850,1540931889.484713,-0.27692880595188957,-0.09106066820475237,-0.09535235230141506,-0.0433349609375,-0.1601715087890625,-0.7616424560546875,33.65196228027344,15.641708374023438,-72.60176086425781,,,,,,,,,,
0,2018-10-30 16:38:06.7480,00:17,60,0,2018-10-30 16:38:09.5010,1540931889.501406,-0.3528693770677171,0.04013170709862206,0.007630489155295034,-0.052764892578125,-0.1950225830078125,-0.7896881103515625,33.714447021484375,15.629562377929688,-72.52076721191406,,,,,,,,,,
0,2018-10-30 16:38:06.7480,00:17,60,0,2018-10-30 16:38:09.5180,1540931889.518023,-0.40525881571564687,0.1951204920062905,0.053881341490592156,-0.0660400390625,-0.1696624755859375,-0.8475341796875,33.81608581542969,16.076034545898438,-72.34251403808594,,,,,,,,,,
0,2018-10-30 16:38:06.7480,00:17,60,0,2018-10-30 16:38:09.5350,1540931889.534672,-0.39121330412656896,0.34842855595000993,0.09047637066158898,-0.05853271484375,-0.1431884765625,-0.94769287109375,34.31712341308594,16.288192749023438,-72.15122985839844,,,,,,,,,,
0,2018-10-30 16:38:06.7480,00:17,60,0,2018-10-30 16:38:09.5520,1540931889.551523,-0.2589924160102059,0.205959025010695,0.23804771930116875,-0.0064544677734375,-0.165679931640625,-1.199737548828125,34.5032958984375,16.25164794921875,-72.06440734863281,,,,,,,,,,
0,2018-10-30 16:38:06.7480,00:17,60,0,2018-10-30 16:38:09.5680,1540931889.5680552,-0.2589924160102059,0.205959025010695,0.23804771930116875,-0.0064544677734375,-0.165679931640625,-1.199737548828125,34.5032958984375,16.25164794921875,-72.06440734863281,,,,,,,,,,
0,2018-10-30 16:38:06.7480,00:17,60,0,2018-10-30 16:38:09.5850,1540931889.584696,-0.18525534438031,-0.11518358135869011,0.30723984021473544,-0.0080718994140625,-0.162872314453125,-1.29022216796875,34.40522766113281,16.815231323242188,-71.89263916015625,,,,,,,,,,
0,2018-10-30 16:38:06.7480,00:17,60,0,2018-10-30 16:38:09.6020,1540931889.601613,-0.3718300187646452,-0.23106970461294313,0.25252785878014755,-0.10064697265625,-0.1133270263671875,-1.3316192626953125,34.43931579589844,16.96405029296875,-71.80717468261719,,,,,,,,,,
0,2018-10-30 16:38:06.7480,00:17,60,0,2018-10-30 16:38:09.6180,1540931889.6180758,-0.3718300187646452,-0.23106970461294313,0.25252785878014755,-0.10064697265625,-0.1133270263671875,-1.3316192626953125,34.16423034667969,17.1739501953125,-71.73626708984375,,,,,,,,,,
0,2018-10-30 16:38:06.7480,00:17,60,0,2018-10-30 16:38:09.6350,1540931889.634873,-0.35426300926615556,-0.1885328967338705,0.12193096629651487,-0.1237030029296875,-0.0569305419921875,-1.449554443359375,34.3831787109375,17.28607177734375,-71.72018432617188,,,,,,,,,,
0,2018-10-30 16:38:06.7480,00:17,60,0,2018-10-30 16:38:09.6530,1540931889.652676,0.2502945318900071,-0.6614258841253877,-0.1904186811017556,-0.082916259765625,0.0167083740234375,-1.649017333984375,33.75978088378906,17.098434448242188,-71.76107788085938,,,,,,,,,,
0,2018-10-30 16:38:06.7480,00:17,60,0,2018-10-30 16:38:09.6680,1540931889.668122,0.2502945318900071,-0.6614258841253877,-0.1904186811017556,-0.082916259765625,0.0167083740234375,-1.649017333984375,33.75978088378906,17.098434448242188,-71.76107788085938,,,,,,,,,,
0,2018-10-30 16:38:06.7480,00:17,60,0,2018-10-30 16:38:09.6850,1540931889.684798,0.25590208388127794,-0.47083596176554,0.010066216288281504,-0.005584716796875,-0.1349029541015625,-1.311004638671875,33.14207458496094,17.220626831054688,-71.71208190917969,,,,,,,,,,
0,2018-10-30 16:38:06.7480,00:17,60,0,2018-10-30 16:38:09.7020,1540931889.701513,-0.07255729126699083,-0.22572633820180812,0.3616902992302775,0.009063720703125,-0.1821136474609375,-1.167266845703125,32.97074890136719,17.1767578125,-71.72303771972656,,,,,,,,,,
0,2018-10-30 16:38:06.7480,00:17,60,0,2018-10-30 16:38:09.7180,1540931889.71812,-0.07255729126699083,-0.22572633820180812,0.3616902992302775,0.009063720703125,-0.1821136474609375,-1.167266845703125,33.01904296875,17.245101928710938,-71.63980102539062,,,,,,,,,,
0,2018-10-30 16:38:06.7480,00:17,60,0,2018-10-30 16:38:09.7350,1540931889.7347832,-0.10794297898698267,-0.3814083439412242,0.42897106942949437,-0.0957794189453125,0.0491943359375,-1.1225738525390625,32.74330139160156,17.454940795898438,-71.64698791503906,,,,,,,,,,
0,2018-10-30 16:38:06.7480,00:17,60,0,2018-10-30 16:38:09.7520,1540931889.75158,-0.008124239221395725,-0.37365561569189454,0.14410737500971368,-0.1515350341796875,0.1144866943359375,-1.0173187255859375,32.880523681640625,17.349960327148438,-71.72149658203125,,,,,,,,,,
0,2018-10-30 16:38:06.7480,00:17,60,0,2018-10-30 16:38:09.7680,1540931889.768142,-0.008124239221395725,-0.37365561569189454,0.14410737500971368,-0.1515350341796875,0.1144866943359375,-1.0173187255859375,32.880523681640625,17.349960327148438,-71.72149658203125,,,,,,,,,,
0,2018-10-30 16:38:06.7480,00:17,60,0,2018-10-30 16:38:09.7850,1540931889.7847729,0.1391403132606069,0.04832652008890488,-0.2473429504538723,-0.07501220703125,0.03717041015625,-0.8870849609375,32.53135681152344,17.652725219726562,-71.41697692871094,,,,,,,,,,
0,2018-10-30 16:38:06.7480,00:17,60,0,2018-10-30 16:38:09.8020,1540931889.801589,0.23949381577308176,0.30128874044284437,-0.1838742290389949,0.0038299560546875,-0.0347442626953125,-0.8485565185546875,32.45466613769531,17.745361328125,-71.49574279785156,,,,,,,,,,
0,2018-10-30 16:38:06.7480,00:17,60,0,2018-10-30 16:38:09.8180,1540931889.818098,0.24197428401238158,0.4951620741106508,0.014473747892362644,0.067718505859375,-0.0732421875,-0.806793212890625,32.72715759277344,17.53521728515625,-71.87904357910156,,,,,,,,,,
0,2018-10-30 16:38:06.7480,00:17,60,0,2018-10-30 16:38:09.8350,1540931889.834999,0.18667880398295733,0.598790465815596,0.19880311116165209,0.0810089111328125,-0.068695068359375,-0.80609130859375,33.26948547363281,17.505813598632812,-71.85064697265625,,,,,,,,,,
0,2018-10-30 16:38:06.7480,00:17,60,0,2018-10-30 16:38:09.8520,1540931889.851557,0.11669732212229114,0.5774958297393225,0.282320908210973,0.0782470703125,-0.0265350341796875,-0.80853271484375,33.485992431640625,17.3084716796875,-71.53398132324219,,,,,,,,,,
0,2018-10-30 16:38:06.7480,00:17,60,0,2018-10-30 16:38:09.8690,1540931889.869384,0.06565224719263338,0.4190534575300393,0.2660748266131626,0.0715484619140625,0.0184478759765625,-0.8220672607421875,33.793212890625,17.247222900390625,-71.75372314453125,,,,,,,,,,
0,2018-10-30 16:38:06.7480,00:17,60,0,2018-10-30 16:38:09.8860,1540931889.885971,0.09330491405536215,0.09890154708616367,0.1982089599224554,0.0713958740234375,0.02972412109375,-0.8549346923828125,33.793212890625,17.247222900390625,-71.75372314453125,,,,,,,,,,
0,2018-10-30 16:38:06.7480,00:17,60,0,2018-10-30 16:38:09.9020,1540931889.901671,0.18519009693360305,-0.3270143439407918,0.18802370033344734,0.090118408203125,0.0072479248046875,-0.86126708984375,33.56707763671875,17.5255126953125,-71.52149963378906,,,,,,,,,,
0,2018-10-30 16:38:06.7480,00:17,60,0,2018-10-30 16:38:09.9180,1540931889.918287,0.23556405526856083,-0.5602409427205901,0.23698352012957308,0.085205078125,-0.0224151611328125,-0.7862396240234375,33.56707763671875,17.5255126953125,-71.52149963378906,,,,,,,,,,
0,2018-10-30 16:38:06.7480,00:17,60,0,2018-10-30 16:38:09.9350,1540931889.934918,0.20255683671811875,-0.4810137645034958,0.2488686754423787,0.0482177734375,-0.0373687744140625,-0.676422119140625,33.208953857421875,17.518157958984375,-71.69737243652344,,,,,,,,,,
0,2018-10-30 16:38:06.7480,00:17,60,0,2018-10-30 16:38:09.9520,1540931889.951669,0.1450690424793413,-0.3150357116737244,0.26407932000836626,0.0285491943359375,-0.0748443603515625,-0.6548614501953125,33.066680908203125,17.313385009765625,-71.63467407226562,,,,,,,,,,
0,2018-10-30 16:38:06.7480,00:17,60,0,2018-10-30 16:38:09.9680,1540931889.968309,0.04244412987313786,-0.12488041720377763,0.29218099583088236,0.0096893310546875,-0.1024017333984375,-0.690887451171875,33.25218200683594,17.276748657226562,-71.62594604492188,,,,,,,,,,
0,2018-10-30 16:38:06.7480,00:17,60,0,2018-10-30 16:38:09.9850,1540931889.984967,-0.023741282169729386,0.0003155845891743897,0.24844603177738311,-0.00799560546875,-0.0879974365234375,-0.76617431640625,33.25218200683594,17.276748657226562,-71.62594604492188,,,,,,,,,,
0,2018-10-30 16:38:06.7480,00:17,60,0,2018-10-30 16:38:10.0020,1540931890.001628,-0.034221353691409204,0.10234022068567397,0.1853935624408851,-0.00897216796875,-0.0803070068359375,-0.8494873046875,33.480926513671875,16.998703002929688,-71.54579162597656,,,,,,,,,,
0,2018-10-30 16:38:06.7480,00:17,60,0,2018-10-30 16:38:10.0180,1540931890.0182881,-0.014651647053179936,0.2571095611195199,0.1138320271054749,-0.00653076171875,-0.1008453369140625,-0.93377685546875,33.518768310546875,17.457168579101562,-71.60472106933594,,,,,,,,,,
0,2018-10-30 16:38:06.7480,00:17,60,0,2018-10-30 16:38:10.0350,1540931890.034966,0.022530342822070355,0.37607243438114146,0.02830088027205405,-0.0020904541015625,-0.1263885498046875,-1.022918701171875,33.5838623046875,17.445281982421875,-71.21133422851562,,,,,,,,,,
0,2018-10-30 16:38:06.7480,00:17,60,0,2018-10-30 16:38:10.0520,1540931890.051629,0.05039819310087752,0.21339217392921514,0.07092796931208036,0.0356903076171875,-0.180572509765625,-1.159942626953125,33.73773193359375,17.569305419921875,-71.58863830566406,,,,,,,,,,
0,2018-10-30 16:38:06.7480,00:17,60,0,2018-10-30 16:38:10.0680,1540931890.0683122,-0.029519542786874308,-0.07175834293996705,0.16376043859006242,0.0353240966796875,-0.1891021728515625,-1.2396392822265625,33.74098205566406,17.569625854492188,-71.19815063476562,,,,,,,,,,
0,2018-10-30 16:38:06.7480,00:17,60,0,2018-10-30 16:38:10.0850,1540931890.085016,-0.23465298785964472,-0.14525786060062792,0.10268004004076808,-0.024505615234375,-0.140228271484375,-1.25274658203125,33.74098205566406,17.569625854492188,-71.19815063476562,,,,,,,,,,
0,2018-10-30 16:38:06.7480,00:17,60,0,2018-10-30 16:38:10.1030,1540931890.102649,-0.39600592882427554,-0.08767738835591571,-0.11459502275778259,-0.073577880859375,-0.0954742431640625,-1.289947509765625,33.46784973144531,17.77972412109375,-70.89292907714844,,,,,,,,,,
0,2018-10-30 16:38:06.7480,00:17,60,0,2018-10-30 16:38:10.1180,1540931890.118376,-0.3936929734175417,0.10459352128399002,-0.3263890337168412,-0.1112060546875,-0.0594482421875,-1.36248779296875,33.40061950683594,18.491806030273438,-71.02619934082031,,,,,,,,,,
0,2018-10-30 16:38:06.7480,00:17,60,0,2018-10-30 16:38:10.1350,1540931890.135071,-0.18137751551704562,0.32176045974228346,-0.5060770398383405,-0.11309814453125,-0.009033203125,-1.4413604736328125,33.312347412109375,18.665191650390625,-70.79039001464844,,,,,,,,,,
0,2018-10-30 16:38:06.7480,00:17,60,0,2018-10-30 16:38:10.1520,1540931890.1518002,0.26635179536653086,0.24239293293574202,-0.666911995970951,-0.0644989013671875,0.008453369140625,-1.5305023193359375,33.399322509765625,18.491683959960938,-71.18240356445312,,,,,,,,,,
0,2018-10-30 16:38:06.7480,00:17,60,0,2018-10-30 16:38:10.1680,1540931890.168343,0.739377408180334,-0.13628567088815097,-0.6921228104301861,0.0034637451171875,-0.0103912353515625,-1.5479888916015625,32.989166259765625,18.106353759765625,-71.297119140625,,,,,,,,,,
0,2018-10-30 16:38:06.7480,00:17,60,0,2018-10-30 16:38:10.1850,1540931890.185034,0.8670576066381119,-0.19129832320980877,-0.4951828467671534,0.0130615234375,-0.0912628173828125,-1.3700714111328125,32.886871337890625,17.659820556640625,-71.55349731445312,,,,,,,,,,
0,2018-10-30 16:38:06.7480,00:17,60,0,2018-10-30 16:38:10.2020,1540931890.201964,0.6770410628609583,0.09133044642317739,-0.12105771577507789,-0.0162353515625,-0.1444244384765625,-1.198486328125,32.886871337890625,17.659820556640625,-71.55349731445312,,,,,,,,,,
0,2018-10-30 16:38:06.7480,00:17,60,0,2018-10-30 16:38:10.2180,1540931890.218406,0.38959090639049265,0.3103362976141706,0.1684143125949759,-0.0346527099609375,-0.067962646484375,-1.1209869384765625,33.09226989746094,17.852523803710938,-71.45706176757812,,,,,,,,,,
0,2018-10-30 16:38:06.7480,00:17,60,0,2018-10-30 16:38:10.2350,1540931890.235124,0.2533933861344233,0.28260719802815654,0.12664928879980825,-0.0948638916015625,0.0529632568359375,-1.119232177734375,33.25920104980469,17.586685180664062,-71.37983703613281,,,,,,,,,,
0,2018-10-30 16:38:06.7480,00:17,60,0,2018-10-30 16:38:10.2520,1540931890.2517362,0.2660276886618682,0.14875192795081188,0.030103574013928686,-0.103668212890625,0.1092529296875,-1.108306884765625,33.41191101074219,17.401351928710938,-71.30036926269531,,,,,,,,,,
0,2018-10-30 16:38:06.7480,00:17,60,0,2018-10-30 16:38:10.2680,1540931890.268423,0.3417924911457505,0.022562300755151306,0.028858812520425648,-0.0833740234375,0.0825347900390625,-1.050994873046875,33.54652404785156,17.296142578125,-71.687255859375,,,,,,,,,,
0,2018-10-30 16:38:06.7480,00:17,60,0,2018-10-30 16:38:10.2850,1540931890.28516,0.3645462731832785,-0.005021922867562419,0.11020480170078698,-0.056640625,0.0297698974609375,-0.9471282958984375,33.816558837890625,16.776458740234375,-71.76997375488281,,,,,,,,,,
0,2018-10-30 16:38:06.7480,00:17,60,0,2018-10-30 16:38:10.3020,1540931890.301869,0.27113696321318526,0.07743007711350881,0.2720291221783618,-0.0292205810546875,-0.025360107421875,-0.827972412109375,33.816558837890625,16.776458740234375,-71.76997375488281,,,,,,,,,,
0,2018-10-30 16:38:06.7480,00:17,60,0,2018-10-30 16:38:10.3190,1540931890.319378,0.06974286262699508,0.2215443763420567,0.42003429975951545,-0.03131103515625,-0.0462493896484375,-0.72967529296875,33.678680419921875,16.881393432617188,-71.77357482910156,,,,,,,,,,
0,2018-10-30 16:38:06.7480,00:17,60,0,2018-10-30 16:38:10.3350,1540931890.3352041,-0.1574372952138873,0.2534253440675043,0.2959083560925573,-0.107025146484375,0.0374908447265625,-0.7477264404296875,33.75978088378906,17.098434448242188,-71.76107788085938,,,,,,,,,,
0,2018-10-30 16:38:06.7480,00:17,60,0,2018-10-30 16:38:10.3520,1540931890.351742,-0.1574372952138873,0.2534253440675043,0.2959083560925573,-0.107025146484375,0.0374908447265625,-0.7477264404296875,34.182830810546875,17.40313720703125,-71.80477905273438,,,,,,,,,,
0,2018-10-30 16:38:06.7480,00:17,60,0,2018-10-30 16:38:10.3700,1540931890.37002,-0.08304641753637691,0.04588626558206527,0.08467467422685136,-0.1128387451171875,0.0634765625,-0.778106689453125,34.119049072265625,17.4151611328125,-72.0419921875,,,,,,,,,,
0,2018-10-30 16:38:06.7480,00:17,60,0,2018-10-30 16:38:10.3860,1540931890.385943,-0.001279915219892082,-0.16492131050922798,-0.13834429441078222,-0.0782623291015625,-0.028717041015625,-0.715179443359375,34.10174560546875,17.186111450195312,-71.81727600097656,,,,,,,,,,
0,2018-10-30 16:38:06.7480,00:17,60,0,2018-10-30 16:38:10.4020,1540931890.401784,-0.001279915219892082,-0.16492131050922798,-0.13834429441078222,-0.0782623291015625,-0.028717041015625,-0.715179443359375,34.10174560546875,17.186111450195312,-71.81727600097656,,,,,,,,,,
0,2018-10-30 16:38:06.7480,00:17,60,0,2018-10-30 16:38:10.4190,1540931890.418504,0.01109286488850705,-0.09243086458559814,-0.1735962914440521,-0.078216552734375,-0.0728759765625,-0.6963653564453125,34.16552734375,17.174087524414062,-71.580078125,,,,,,,,,,
0,2018-10-30 16:38:06.7480,00:17,60,0,2018-10-30 16:38:10.4350,1540931890.4353452,0.15658561629727996,-0.012226838880662791,-0.29346890053404473,-0.11505126953125,-0.101806640625,-0.740814208984375,33.735137939453125,17.569046020507812,-71.90103149414062,,,,,,,,,,
0,2018-10-30 16:38:06.7480,00:17,60,0,2018-10-30 16:38:10.4520,1540931890.4519072,0.15658561629727996,-0.012226838880662791,-0.29346890053404473,-0.11505126953125,-0.101806640625,-0.740814208984375,33.8111572265625,17.476348876953125,-71.90034484863281,,,,,,,,,,
0,2018-10-30 16:38:06.7480,00:17,60,0,2018-10-30 16:38:10.4680,1540931890.468488,0.009947439303663971,-0.14360883125365087,-0.3557056436286515,-0.1042633056640625,-0.17852783203125,-0.758148193359375,33.59092712402344,17.364089965820312,-72.07261657714844,,,,,,,,,,
0,2018-10-30 16:38:06.7480,00:17,60,0,2018-10-30 16:38:10.4850,1540931890.4852772,-0.12329796688405253,-0.17493239936294483,-0.31716118053971665,-0.096771240234375,-0.2127685546875,-0.8173675537109375,33.53102111816406,17.376480102539062,-71.84121704101562,,,,,,,,,,
0,2018-10-30 16:38:06.7480,00:17,60,0,2018-10-30 16:38:10.5020,1540931890.5018868,-0.12329796688405253,-0.17493239936294483,-0.31716118053971665,-0.096771240234375,-0.2127685546875,-0.8173675537109375,33.28239440917969,17.425201416015625,-72.00906372070312,,,,,,,,,,
0,2018-10-30 16:38:06.7480,00:17,60,0,2018-10-30 16:38:10.5190,1540931890.518585,-0.14735003995299417,0.10156071343460778,-0.15939764809229462,-0.1021881103515625,-0.19915771484375,-0.959716796875,33.28239440917969,17.425201416015625,-72.00906372070312,,,,,,,,,,
0,2018-10-30 16:38:06.7480,00:17,60,0,2018-10-30 16:38:10.5360,1540931890.536397,-0.05275828645890574,0.19448719229906966,-0.09291236411068446,-0.081298828125,-0.1783294677734375,-1.0466156005859375,33.226898193359375,17.747299194335938,-71.84396362304688,,,,,,,,,,
0,2018-10-30 16:38:06.7480,00:17,60,0,2018-10-30 16:38:10.5520,1540931890.551935,-0.05275828645890574,0.19448719229906966,-0.09291236411068446,-0.081298828125,-0.1783294677734375,-1.0466156005859375,33.24681091308594,17.97662353515625,-71.75628662109375,,,,,,,,,,
0,2018-10-30 16:38:06.7480,00:17,60,0,2018-10-30 16:38:10.5690,1540931890.568591,0.021370802483449854,0.14676094871986864,0.03337260425200095,-0.0658111572265625,-0.1562957763671875,-1.1782989501953125,33.230010986328125,18.056869506835938,-72.06645202636719,,,,,,,,,,
0,2018-10-30 16:38:06.7480,00:17,60,0,2018-10-30 16:38:10.5850,1540931890.585387,-0.05312899848264477,0.17256724599884546,-0.02012071466776666,-0.0706024169921875,-0.1100006103515625,-1.192840576171875,33.615234375,17.903106689453125,-72.05122375488281,,,,,,,,,,
0,2018-10-30 16:38:06.7480,00:17,60,0,2018-10-30 16:38:10.6020,1540931890.601934,-0.1718993251974536,0.2115764306979991,-0.023256586851334964,-0.056915283203125,-0.1209564208984375,-1.2403411865234375,33.72468566894531,17.959182739257812,-72.04318237304688,,,,,,,,,,
0,2018-10-30 16:38:06.7480,00:17,60,0,2018-10-30 16:38:10.6190,1540931890.618524,-0.2606497011565622,0.22060135100005965,0.09671242867011853,-0.0037689208984375,-0.144378662109375,-1.3067779541015625,33.72468566894531,17.959182739257812,-72.04318237304688,,,,,,,,,,
0,2018-10-30 16:38:06.7480,00:17,60,0,2018-10-30 16:38:10.6350,1540931890.635349,-0.2539119035986617,0.06442506256232487,0.18647054478571315,0.022003173828125,-0.1278228759765625,-1.3689727783203125,33.64210510253906,18.4423828125,-71.71743774414062,,,,,,,,,,
0,2018-10-30 16:38:06.7480,00:17,60,0,2018-10-30 16:38:10.6520,1540931890.651995,-0.22993386640802432,-0.06680406436409266,0.21735788710845214,0.0269012451171875,-0.103363037109375,-1.36602783203125,33.95570373535156,18.691009521484375,-71.76918029785156,,,,,,,,,,
0,2018-10-30 16:38:06.7480,00:17,60,0,2018-10-30 16:38:10.6690,1540931890.6687741,-0.25472150457004583,-0.11323814218238723,0.25799932323971536,0.013092041015625,-0.100616455078125,-1.31903076171875,33.589752197265625,19.07403564453125,-71.77482604980469,,,,,,,,,,
0,2018-10-30 16:38:06.7480,00:17,60,0,2018-10-30 16:38:10.6850,1540931890.6853142,-0.34960141209408085,-0.08785741804560505,0.35978534010254387,0.028289794921875,-0.10711669921875,-1.263946533203125,33.82159423828125,19.105560302734375,-71.91717529296875,,,,,,,,,,
0,2018-10-30 16:38:06.7480,00:17,60,0,2018-10-30 16:38:10.7020,1540931890.702059,-0.42324660466636904,-0.03796629081627863,0.5022892258199209,0.047088623046875,-0.102508544921875,-1.2298583984375,33.96388244628906,19.31036376953125,-71.97987365722656,,,,,,,,,,
0,2018-10-30 16:38:06.7480,00:17,60,0,2018-10-30 16:38:10.7190,1540931890.7186852,-0.31255950449216874,-0.03906298055317326,0.5108281192230419,0.0265655517578125,-0.032928466796875,-1.2276611328125,33.96388244628906,19.31036376953125,-71.97987365722656,,,,,,,,,,
0,2018-10-30 16:38:06.7480,00:17,60,0,2018-10-30 16:38:10.7350,1540931890.735388,-0.032547024314076384,-0.122271584599936,0.3607374201922472,-0.001495361328125,0.0404510498046875,-1.1960601806640625,34.23811340332031,19.800765991210938,-71.63444519042969,,,,,,,,,,
0,2018-10-30 16:38:06.7480,00:17,60,0,2018-10-30 16:38:10.7530,1540931890.753148,0.23714330979497783,-0.18797682869826196,0.18604097690188337,-0.009002685546875,0.044647216796875,-1.1003875732421875,33.91978454589844,20.2520751953125,-71.63496398925781,,,,,,,,,,
0,2018-10-30 16:38:06.7480,00:17,60,0,2018-10-30 16:38:10.7690,1540931890.769154,0.3279259439819259,-0.08365361826491498,0.11654179351463052,0.007965087890625,-0.0087432861328125,-0.9719696044921875,34.03840637207031,19.91790771484375,-71.64094543457031,,,,,,,,,,
0,2018-10-30 16:38:06.7480,00:17,60,0,2018-10-30 16:38:10.7860,1540931890.785831,0.26217329561619657,-0.0020945761973473207,0.16484700831481477,0.026885986328125,-0.10137939453125,-0.8427581787109375,33.93742370605469,19.471511840820312,-71.74111938476562,,,,,,,,,,
0,2018-10-30 16:38:06.7480,00:17,60,0,2018-10-30 16:38:10.8000,1540931890.799708,0.18125074904915783,0.03529407497849312,0.20560535721793247,0.033111572265625,-0.109375,-0.7945556640625,34.10041809082031,19.205307006835938,-72.13246154785156,,,,,,,,,,
0,2018-10-30 16:38:06.7480,00:17,60,0,2018-10-30 16:38:10.8190,1540931890.818737,0.09126812845366954,0.11499529586962151,0.23570946386407918,0.040679931640625,-0.0998992919921875,-0.7477264404296875,34.19197082519531,19.032241821289062,-71.97781372070312,,,,,,,,,,
0,2018-10-30 16:38:06.7480,00:17,60,0,2018-10-30 16:38:10.8360,1540931890.83567,-0.03618996236919578,0.24587901080265576,0.2690983133987296,0.048980712890625,-0.091217041015625,-0.72808837890625,34.19197082519531,19.032241821289062,-71.97781372070312,,,,,,,,,,
0,2018-10-30 16:38:06.7480,00:17,60,0,2018-10-30 16:38:10.8520,1540931890.8520908,-0.15113971818417693,0.36362908050385523,0.31103484476809834,0.0588226318359375,-0.0805511474609375,-0.757568359375,34.35414123535156,19.466354370117188,-71.95281982421875,,,,,,,,,,
0,2018-10-30 16:38:06.7480,00:17,60,0,2018-10-30 16:38:10.8690,1540931890.868752,-0.17905044535653436,0.3258007414320427,0.3709631598298244,0.0691070556640625,-0.086700439453125,-0.823883056640625,34.76365661621094,19.85162353515625,-71.91619873046875,,,,,,,,,,
0,2018-10-30 16:38:06.7480,00:17,60,0,2018-10-30 16:38:10.8850,1540931890.885453,-0.09958278369300592,0.14869280577461214,0.38143417660379797,0.0595703125,-0.0718841552734375,-0.874908447265625,34.74946594238281,19.932113647460938,-71.91398620605469,,,,,,,,,,
0,2018-10-30 16:38:06.7480,00:17,60,0,2018-10-30 16:38:10.9020,1540931890.902252,0.05530320319658546,-0.10443612846356633,0.2879196717706466,0.034881591796875,-0.0543975830078125,-0.88189697265625,35.30403137207031,19.822021484375,-72.12210083007812,,,,,,,,,,
0,2018-10-30 16:38:06.7480,00:17,60,0,2018-10-30 16:38:10.9190,1540931890.919162,0.13488032078091616,-0.2951690625739513,0.18914595641680673,0.017242431640625,-0.0630645751953125,-0.8279571533203125,35.035491943359375,19.641387939453125,-72.37759399414062,,,,,,,,,,
0,2018-10-30 16:38:06.7480,00:17,60,0,2018-10-30 16:38:10.9350,1540931890.935484,0.08890617088287826,-0.2620910039385131,0.14207991047183638,-0.0065765380859375,-0.1110992431640625,-0.7572174072265625,35.035491943359375,19.641387939453125,-72.37759399414062,,,,,,,,,,
0,2018-10-30 16:38:06.7480,00:17,60,0,2018-10-30 16:38:10.9520,1540931890.9521399,-0.02658820137502409,-0.0934615079274588,0.17444157877404323,-0.010711669921875,-0.1647186279296875,-0.7386627197265625,34.934967041015625,19.895477294921875,-71.90525817871094,,,,,,,,,,
0,2018-10-30 16:38:06.7480,00:17,60,0,2018-10-30 16:38:10.9700,1540931890.969825,-0.1084617627673301,0.06400348416176532,0.21320655160123664,-0.0088958740234375,-0.193756103515625,-0.7812957763671875,34.9793701171875,19.96343994140625,-72.29060363769531,,,,,,,,,,
0,2018-10-30 16:38:06.7480,00:17,60,0,2018-10-30 16:38:10.9860,1540931890.985512,-0.09492997495252849,0.1483633727477693,0.18225236393513664,-0.011383056640625,-0.1788177490234375,-0.8723602294921875,34.977203369140625,20.663619995117188,-72.03047180175781,,,,,,,,,,
0,2018-10-30 16:38:06.7480,00:17,60,0,2018-10-30 16:38:11.0020,1540931891.002187,-0.020675983755048182,0.16652639769821873,0.06017865220419352,-0.0277557373046875,-0.1458892822265625,-0.9563140869140625,35.230438232421875,20.224212646484375,-72.42333984375,,,,,,,,,,
0,2018-10-30 16:38:06.7480,00:17,60,0,2018-10-30 16:38:11.0190,1540931891.0189672,0.0691614945610308,0.15329741129935912,-0.09299252525949585,-0.0380706787109375,-0.1376800537109375,-1.0251922607421875,35.352813720703125,20.199661254882812,-72.57373046875,,,,,,,,,,
0,2018-10-30 16:38:06.7480,00:17,60,0,2018-10-30 16:38:11.0350,1540931891.03546,0.1590202781658304,0.055304268461021495,-0.1466781244099672,-0.001922607421875,-0.1608123779296875,-1.0827484130859375,35.352813720703125,20.199661254882812,-72.57373046875,,,,,,,,,,
0,2018-10-30 16:38:06.7480,00:17,60,0,2018-10-30 16:38:11.0520,1540931891.052208,0.1760498617563421,-0.13969025602570825,-0.11158431914544802,0.0249481201171875,-0.1794281005859375,-1.1150970458984375,35.36767578125,20.119232177734375,-72.49784851074219,,,,,,,,,,
0,2018-10-30 16:38:06.7480,00:17,60,0,2018-10-30 16:38:11.0690,1540931891.069063,0.052462142945688926,-0.16336389390374964,-0.11586721481051344,-0.0133056640625,-0.15850830078125,-1.089447021484375,35.06092834472656,20.489791870117188,-72.81297302246094,,,,,,,,,,
0,2018-10-30 16:38:06.7480,00:17,60,0,2018-10-30 16:38:11.0860,1540931891.085527,-0.09057943499577505,-0.03616865708047514,-0.20455740332898628,-0.0668487548828125,-0.131805419921875,-1.10986328125,35.17236328125,20.546066284179688,-72.57063293457031,,,,,,,,,,
0,2018-10-30 16:38:06.7480,00:17,60,0,2018-10-30 16:38:11.1020,1540931891.1022558,-0.1308517569999533,0.14408207497935793,-0.28356913181389315,-0.0792236328125,-0.1051177978515625,-1.2091522216796875,35.29278564453125,20.521316528320312,-72.95530700683594,,,,,,,,,,
0,2018-10-30 16:38:06.7480,00:17,60,0,2018-10-30 16:38:11.1190,1540931891.1189651,-0.0007214503393024657,0.17552122427996136,-0.3435299374409182,-0.06683349609375,-0.0765380859375,-1.3519439697265625,35.412689208984375,20.187255859375,-72.80509948730469,,,,,,,,,,
0,2018-10-30 16:38:06.7480,00:17,60,0,2018-10-30 16:38:11.1360,1540931891.135658,0.20914762778384685,-0.18923277546834333,-0.5142974191750881,-0.051544189453125,-0.0089263916015625,-1.4530487060546875,34.79432678222656,20.309356689453125,-72.83419799804688,,,,,,,,,,
0,2018-10-30 16:38:06.7480,00:17,60,0,2018-10-30 16:38:11.1520,1540931891.152192,0.19439531324146192,-0.6717951681457203,-0.7087151029697067,-0.04931640625,0.008270263671875,-1.3988800048828125,34.79432678222656,20.309356689453125,-72.83419799804688,,,,,,,,,,
0,2018-10-30 16:38:06.7480,00:17,60,0,2018-10-30 16:38:11.1710,1540931891.1705,-0.11349114248594475,-0.6507996050598626,-0.621875278776621,-0.04498291015625,-0.0869140625,-1.27777099609375,34.22428894042969,20.49981689453125,-72.78005981445312,,,,,,,,,,
0,2018-10-30 16:38:06.7480,00:17,60,0,2018-10-30 16:38:11.1870,1540931891.187115,-0.4595026134305988,-0.26583966948890864,-0.30862548292990366,-0.0369873046875,-0.1355438232421875,-1.2379913330078125,33.94920349121094,20.709732055664062,-72.70913696289062,,,,,,,,,,
0,2018-10-30 16:38:06.7480,00:17,60,0,2018-10-30 16:38:11.2030,1540931891.203463,-0.42623041035169384,-0.0654980501655178,-0.17881209243897228,-0.053436279296875,-0.0311737060546875,-1.3189849853515625,33.82667541503906,21.043502807617188,-73.17173767089844,,,,,,,,,,
0,2018-10-30 16:38:06.7480,00:17,60,0,2018-10-30 16:38:11.2200,1540931891.2196841,-0.13030634160870505,-0.2483717295829699,-0.3279587008633339,-0.0514373779296875,0.1158905029296875,-1.336273193359375,33.813140869140625,21.12408447265625,-73.09141540527344,,,,,,,,,,
0,2018-10-30 16:38:06.7480,00:17,60,0,2018-10-30 16:38:11.2360,1540931891.236264,0.03579288505066496,-0.334817672250833,-0.47695510700221505,-0.05511474609375,0.1254425048828125,-1.18011474609375,33.48146057128906,20.955535888671875,-73.50604248046875,,,,,,,,,,
0,2018-10-30 16:38:06.7480,00:17,60,0,2018-10-30 16:38:11.2520,1540931891.252393,-0.049636529029114855,-0.10916430466289301,-0.44131775055921074,-0.058441162109375,0.03692626953125,-1.0074005126953125,33.48146057128906,20.955535888671875,-73.50604248046875,,,,,,,,,,
0,2018-10-30 16:38:06.7480,00:17,60,0,2018-10-30 16:38:11.2690,1540931891.269047,-0.21581778105005933,0.0704422087292499,-0.3275448456299356,-0.054840087890625,-0.024383544921875,-0.9478607177734375,33.53300476074219,21.024200439453125,-73.03231811523438,,,,,,,,,,
0,2018-10-30 16:38:06.7480,00:17,60,0,2018-10-30 16:38:11.2860,1540931891.285682,-0.30416948179398307,0.09399547172601969,-0.32535279773669135,-0.050384521484375,-0.0071868896484375,-0.9254608154296875,33.33770751953125,21.451034545898438,-73.10511779785156,,,,,,,,,,
0,2018-10-30 16:38:06.7480,00:17,60,0,2018-10-30 16:38:11.3020,1540931891.302433,-0.11630770165481255,-0.03479499859021227,-0.4861861559726477,-0.0589599609375,-0.0029449462890625,-0.8742523193359375,33.15594482421875,21.797271728515625,-73.25822448730469,,,,,,,,,,
0,2018-10-30 16:38:06.7480,00:17,60,0,2018-10-30 16:38:11.3190,1540931891.319063,-0.01679602436291174,-0.10920105628593611,-0.510931716189446,-0.03302001953125,-0.0350494384765625,-0.814239501953125,33.277679443359375,21.772674560546875,-73.48670959472656,,,,,,,,,,
0,2018-10-30 16:38:06.7480,00:17,60,0,2018-10-30 16:38:11.3360,1540931891.335752,-0.01586098850418492,-0.22505362371045412,-0.4832324440076408,-0.01055908203125,-0.0734100341796875,-0.7692108154296875,32.949249267578125,21.604446411132812,-73.51081848144531,,,,,,,,,,
0,2018-10-30 16:38:06.7480,00:17,60,0,2018-10-30 16:38:11.3520,1540931891.3523421,-0.056676595370739324,-0.3969119362271205,-0.4148994588617337,-0.0067291259765625,-0.093353271484375,-0.7455596923828125,32.949249267578125,21.604446411132812,-73.51081848144531,,,,,,,,,,
0,2018-10-30 16:38:06.7480,00:17,60,0,2018-10-30 16:38:11.3690,1540931891.369061,-0.06637689332524394,-0.513889689212197,-0.3507897145724742,-0.04498291015625,-0.0995025634765625,-0.7146453857421875,32.71934509277344,21.573135375976562,-73.13420104980469,,,,,,,,,,
0,2018-10-30 16:38:06.7480,00:17,60,0,2018-10-30 16:38:11.3870,1540931891.387494,-0.05750830057917107,-0.4621732313717302,-0.3218147882285211,-0.0930328369140625,-0.0905609130859375,-0.6597900390625,32.11956787109375,21.924423217773438,-73.23179626464844,,,,,,,,,,
0,2018-10-30 16:38:06.7480,00:17,60,0,2018-10-30 16:38:11.4030,1540931891.403362,-0.09635396718739386,-0.22280325258933717,-0.31187240893092827,-0.1267852783203125,-0.0902099609375,-0.623626708984375,31.707931518554688,22.239364624023438,-73.00830078125,,,,,,,,,,
0,2018-10-30 16:38:06.7480,00:17,60,0,2018-10-30 16:38:11.4190,1540931891.41918,-0.158133179206725,0.04702050589033002,-0.2890366015318258,-0.1423187255859375,-0.1103973388671875,-0.6631011962890625,31.608108520507812,22.10235595703125,-73.56524658203125,,,,,,,,,,
0,2018-10-30 16:38:06.7480,00:17,60,0,2018-10-30 16:38:11.4360,1540931891.43579,-0.14414039820723068,0.20023482656367866,-0.22888271672577004,-0.1317596435546875,-0.118804931640625,-0.7684478759765625,31.856094360351562,22.053573608398438,-73.47550964355469,,,,,,,,,,
0,2018-10-30 16:38:06.7480,00:17,60,0,2018-10-30 16:38:11.4520,1540931891.4524431,-0.03462482259655621,0.3028767834008586,-0.19344403210008562,-0.1206512451171875,-0.09442138671875,-0.8626556396484375,32.21421813964844,22.060928344726562,-73.29963684082031,,,,,,,,,,
0,2018-10-30 16:38:06.7480,00:17,60,0,2018-10-30 16:38:11.4710,1540931891.471332,0.10400416373475548,0.37474431594551894,-0.10557809193899231,-0.082733154296875,-0.0908203125,-0.9343109130859375,32.21421813964844,22.060928344726562,-73.29963684082031,,,,,,,,,,
0,2018-10-30 16:38:06.7480,00:17,60,0,2018-10-30 16:38:11.4860,1540931891.4857578,0.10400416373475548,0.37474431594551894,-0.10557809193899231,-0.082733154296875,-0.0908203125,-0.9343109130859375,32.20001220703125,22.14141845703125,-73.29740905761719,,,,,,,,,,
0,2018-10-30 16:38:06.7480,00:17,60,0,2018-10-30 16:38:11.5020,1540931891.5024672,0.137160785622351,0.35743936149829303,0.08500597146645722,-0.0518646240234375,-0.0946197509765625,-1.045501708984375,32.529083251953125,22.3096923828125,-73.1951904296875,,,,,,,,,,
0,2018-10-30 16:38:06.7480,00:17,60,0,2018-10-30 16:38:11.5190,1540931891.5191278,0.05503875130034059,0.15694114830280553,0.111549964367386,-0.0608978271484375,-0.078826904296875,-1.106964111328125,32.6907958984375,22.043350219726562,-73.74272155761719,,,,,,,,,,
0,2018-10-30 16:38:06.7480,00:17,60,0,2018-10-30 16:38:11.5360,1540931891.535825,0.05503875130034059,0.15694114830280553,0.111549964367386,-0.0608978271484375,-0.078826904296875,-1.106964111328125,33.28666687011719,21.691665649414062,-74.11369323730469,,,,,,,,,,
0,2018-10-30 16:38:06.7480,00:17,60,0,2018-10-30 16:38:11.5520,1540931891.552466,-0.2233963385640978,-0.15979525804304345,0.1947535084080776,-0.0585479736328125,-0.0799560546875,-1.160552978515625,33.30720520019531,21.921035766601562,-73.94790649414062,,,,,,,,,,
0,2018-10-30 16:38:06.7480,00:17,60,0,2018-10-30 16:38:11.5690,1540931891.5693998,-0.3932002886158771,-0.14763206871243356,0.2654862680122551,-0.0653228759765625,-0.07763671875,-1.1919403076171875,33.30720520019531,21.921035766601562,-73.94790649414062,,,,,,,,,,
0,2018-10-30 16:38:06.7480,00:17,60,0,2018-10-30 16:38:11.5860,1540931891.58571,-0.3932002886158771,-0.14763206871243356,0.2654862680122551,-0.0653228759765625,-0.07763671875,-1.1919403076171875,33.06687927246094,22.27984619140625,-73.71347045898438,,,,,,,,,,
0,2018-10-30 16:38:06.7480,00:17,60,0,2018-10-30 16:38:11.6040,1540931891.603652,-0.3417663921670677,-0.06904831021470242,0.23558669213782651,-0.0965728759765625,-0.024383544921875,-1.3520660400390625,33.140777587890625,22.887344360351562,-73.45263671875,,,,,,,,,,
0,2018-10-30 16:38:06.7480,00:17,60,0,2018-10-30 16:38:11.6190,1540931891.6190991,-0.3417663921670677,-0.06904831021470242,0.23558669213782651,-0.0965728759765625,-0.024383544921875,-1.3520660400390625,33.24241638183594,23.33380126953125,-73.27438354492188,,,,,,,,,,
0,2018-10-30 16:38:06.7480,00:17,60,0,2018-10-30 16:38:11.6360,1540931891.635858,-0.3571730453892851,0.10380149717580045,0.3246851432514085,-0.044952392578125,-0.0324249267578125,-1.3196258544921875,33.67201232910156,23.248001098632812,-73.64450073242188,,,,,,,,,,
0,2018-10-30 16:38:06.7480,00:17,60,0,2018-10-30 16:38:11.6520,1540931891.652473,-0.4153007972380086,0.23037222272345137,0.4587129861673903,-0.0088653564453125,-0.0283050537109375,-1.3453369140625,33.92570495605469,23.509033203125,-73.46484375,,,,,,,,,,
0,2018-10-30 16:38:06.7480,00:17,60,0,2018-10-30 16:38:11.6690,1540931891.6691709,-0.4153007972380086,0.23037222272345137,0.4587129861673903,-0.0088653564453125,-0.0283050537109375,-1.3453369140625,33.92570495605469,23.509033203125,-73.46484375,,,,,,,,,,
0,2018-10-30 16:38:06.7480,00:17,60,0,2018-10-30 16:38:11.6860,1540931891.6858,0.1142219138890625,-0.11798096576770933,0.28788877910200167,-0.0200653076171875,0.13604736328125,-1.385467529296875,34.332763671875,23.584793090820312,-73.12765502929688,,,,,,,,,,
0,2018-10-30 16:38:06.7480,00:17,60,0,2018-10-30 16:38:11.7030,1540931891.7025728,0.377871666013599,-0.3963068660274545,0.013341371796860952,-0.0374908447265625,0.150360107421875,-1.2293548583984375,34.20713806152344,23.609024047851562,-73.36776733398438,,,,,,,,,,
0,2018-10-30 16:38:06.7480,00:17,60,0,2018-10-30 16:38:11.7190,1540931891.719133,0.377871666013599,-0.3963068660274545,0.013341371796860952,-0.0374908447265625,0.150360107421875,-1.2293548583984375,33.926361083984375,23.509109497070312,-73.38674926757812,,,,,,,,,,
0,2018-10-30 16:38:06.7480,00:17,60,0,2018-10-30 16:38:11.7360,1540931891.7359772,0.30601744927438906,-0.34405324859511877,-0.16862337074054712,0.01171875,-0.0182037353515625,-0.83978271484375,33.650146484375,23.018463134765625,-73.96644592285156,,,,,,,,,,
0,2018-10-30 16:38:06.7480,00:17,60,0,2018-10-30 16:38:11.7530,1540931891.752627,0.14143942022967232,-0.10926577110042503,-0.06334967811415088,0.0347442626953125,-0.0890045166015625,-0.745635986328125,33.67723083496094,22.85736083984375,-74.12710571289062,,,,,,,,,,
0,2018-10-30 16:38:06.7480,00:17,60,0,2018-10-30 16:38:11.7690,1540931891.769206,0.01882109205580799,0.10772752925479527,0.06330919806558166,0.0413970947265625,-0.1059112548828125,-0.7265167236328125,33.986419677734375,22.796310424804688,-74.11256408691406,,,,,,,,,,
0,2018-10-30 16:38:06.7480,00:17,60,0,2018-10-30 16:38:11.7860,1540931891.7858238,-0.008582036612780345,0.24383636624656496,0.17271158932992775,0.0462188720703125,-0.0847320556640625,-0.751312255859375,33.986419677734375,22.796310424804688,-74.11256408691406,,,,,,,,,,
0,2018-10-30 16:38:06.7480,00:17,60,0,2018-10-30 16:38:11.8030,1540931891.802583,0.007504255319625277,0.40869695668293915,0.2907058709030875,0.0513458251953125,-0.0790557861328125,-0.7783660888671875,34.0694580078125,23.0135498046875,-73.86575317382812,,,,,,,,,,
0,2018-10-30 16:38:06.7480,00:17,60,0,2018-10-30 16:38:11.8200,1540931891.8202062,0.03959960751282422,0.48257011584453813,0.4032297532811155,0.0478057861328125,-0.0733184814453125,-0.8308258056640625,34.46476745605469,23.479293823242188,-73.82691955566406,,,,,,,,,,
0,2018-10-30 16:38:06.7480,00:17,60,0,2018-10-30 16:38:11.8370,1540931891.8370528,0.09631268819049764,0.3543058861597058,0.4255459779515435,0.0312957763671875,-0.047454833984375,-0.8784332275390625,35.15020751953125,22.954360961914062,-74.27754211425781,,,,,,,,,,
0,2018-10-30 16:38:06.7480,00:17,60,0,2018-10-30 16:38:11.8530,1540931891.852546,0.1636616353136205,0.09878090588878308,0.3299078684651629,0.0077362060546875,-0.0162811279296875,-0.8799591064453125,35.44013977050781,22.664031982421875,-74.27256774902344,,,,,,,,,,
0,2018-10-30 16:38:06.7480,00:17,60,0,2018-10-30 16:38:11.8690,1540931891.869339,0.1921963411293835,-0.13688541476563681,0.2300201528273429,-0.0019989013671875,-0.0224761962890625,-0.8437347412109375,35.575408935546875,22.558853149414062,-74.58137512207031,,,,,,,,,,
0,2018-10-30 16:38:06.7480,00:17,60,0,2018-10-30 16:38:11.8860,1540931891.885931,0.0966876612719808,-0.1966030737851376,0.24603240888144431,0.004638671875,-0.0743560791015625,-0.7773590087890625,35.575408935546875,22.558853149414062,-74.58137512207031,,,,,,,,,,
0,2018-10-30 16:38:06.7480,00:17,60,0,2018-10-30 16:38:11.9030,1540931891.902601,-0.07690357016600015,-0.024419589299372567,0.3405224296218917,-0.0075225830078125,-0.1197052001953125,-0.753631591796875,35.5701904296875,22.949508666992188,-74.0987548828125,,,,,,,,,,
0,2018-10-30 16:38:06.7480,00:17,60,0,2018-10-30 16:38:11.9190,1540931891.919198,-0.18412935987142448,0.13639219733175414,0.4146360722299248,-0.0163421630859375,-0.1103515625,-0.8232269287109375,35.74458312988281,23.30291748046875,-74.310302734375,,,,,,,,,,
0,2018-10-30 16:38:06.7480,00:17,60,0,2018-10-30 16:38:11.9360,1540931891.935968,-0.16579962103673612,0.17946350164160565,0.41896823637515673,-0.01995849609375,-0.0814361572265625,-0.913970947265625,36.04022216796875,23.322418212890625,-74.21540832519531,,,,,,,,,,
0,2018-10-30 16:38:06.7480,00:17,60,0,2018-10-30 16:38:11.9530,1540931891.9525452,-0.027909129275703392,0.028083300010994575,0.34700056897350945,-0.0184478759765625,-0.0589141845703125,-1.01702880859375,36.48725891113281,23.156448364257812,-74.19728088378906,,,,,,,,,,
0,2018-10-30 16:38:06.7480,00:17,60,0,2018-10-30 16:38:11.9690,1540931891.969374,0.1271286577960225,-0.21733445129085946,0.21815710175158493,-0.019805908203125,-0.0354766845703125,-1.076446533203125,36.663818359375,22.8096923828125,-74.66896057128906,,,,,,,,,,
0,2018-10-30 16:38:06.7480,00:17,60,0,2018-10-30 16:38:11.9860,1540931891.9859052,0.21045124513744065,-0.3592252773253002,0.06804136900654346,-0.0399017333984375,-0.0418701171875,-1.077056884765625,36.663818359375,22.8096923828125,-74.66896057128906,,,,,,,,,,
0,2018-10-30 16:38:06.7480,00:17,60,0,2018-10-30 16:38:12.0030,1540931892.0026011,0.22199897794013324,-0.2937583861445363,-0.10214767413886125,-0.0684967041015625,-0.053924560546875,-1.0569915771484375,36.29981994628906,23.192901611328125,-74.4403076171875,,,,,,,,,,
0,2018-10-30 16:38:06.7480,00:17,60,0,2018-10-30 16:38:12.0190,1540931892.019322,0.22324640259472636,-0.08767765467202471,-0.24860182670115277,-0.0795135498046875,-0.078582763671875,-1.0726776123046875,36.21612548828125,22.975601196289062,-74.76518249511719,,,,,,,,,,
0,2018-10-30 16:38:06.7480,00:17,60,0,2018-10-30 16:38:12.0360,1540931892.036089,0.2646452417400081,0.1500632684715669,-0.2943655868730744,-0.0595855712890625,-0.123992919921875,-1.1277618408203125,36.43507385253906,23.087722778320312,-74.74909973144531,,,,,,,,,,
0,2018-10-30 16:38:06.7480,00:17,60,0,2018-10-30 16:38:12.0540,1540931892.0537782,0.32881384188935836,0.3623744653143189,-0.2566389805549029,-0.0428924560546875,-0.13763427734375,-1.225830078125,36.54280090332031,22.443206787109375,-75.46975708007812,,,,,,,,,,
0,2018-10-30 16:38:06.7480,00:17,60,0,2018-10-30 16:38:12.0700,1540931892.070483,0.4822769018085204,0.30371754335699663,-0.2920867199282936,-0.0445404052734375,-0.0802001953125,-1.36102294921875,36.51063537597656,22.294570922851562,-75.3209228515625,,,,,,,,,,
0,2018-10-30 16:38:06.7480,00:17,60,0,2018-10-30 16:38:12.0860,1540931892.085994,0.666176164561762,-0.12469639277245315,-0.4393675176929457,-0.0572509765625,0.007904052734375,-1.4537506103515625,36.39546203613281,21.928680419921875,-75.41886901855469,,,,,,,,,,
0,2018-10-30 16:38:06.7480,00:17,60,0,2018-10-30 16:38:12.1030,1540931892.102748,0.6078574640628799,-0.3910670965827236,-0.49643772827279875,-0.088165283203125,0.001434326171875,-1.3765869140625,36.39546203613281,21.928680419921875,-75.41886901855469,,,,,,,,,,
0,2018-10-30 16:38:06.7480,00:17,60,0,2018-10-30 16:38:12.1190,1540931892.1194348,0.19014464182558646,-0.1263749832075301,-0.22936608046361942,-0.0809783935546875,-0.0783538818359375,-1.2319183349609375,35.88594055175781,22.106781005859375,-75.51802062988281,,,,,,,,,,
0,2018-10-30 16:38:06.7480,00:17,60,0,2018-10-30 16:38:12.1360,1540931892.136088,-0.36538889735217955,0.4352169811340572,0.23407268505811646,-0.0603179931640625,-0.0949554443359375,-1.1891021728515625,36.509979248046875,22.294509887695312,-75.39901733398438,,,,,,,,,,
0,2018-10-30 16:38:06.7480,00:17,60,0,2018-10-30 16:38:12.1530,1540931892.152752,-0.22042398447146036,0.2715284478934269,0.24775707200337962,-0.1046295166015625,0.273712158203125,-1.439971923828125,37.02391052246094,22.42608642578125,-75.36614990234375,,,,,,,,,,
0,2018-10-30 16:38:06.7480,00:17,60,0,2018-10-30 16:38:12.1690,1540931892.169496,-0.22042398447146036,0.2715284478934269,0.24775707200337962,-0.1046295166015625,0.273712158203125,-1.439971923828125,37.43751525878906,22.111343383789062,-75.35537719726562,,,,,,,,,,
0,2018-10-30 16:38:06.7480,00:17,60,0,2018-10-30 16:38:12.1860,1540931892.186166,0.1626328561845229,0.014855911508789014,-0.0482096073170504,-0.1408538818359375,0.3407440185546875,-1.334869384765625,37.13995361328125,22.091644287109375,-75.68453979492188,,,,,,,,,,
0,2018-10-30 16:38:06.7480,00:17,60,0,2018-10-30 16:38:12.2030,1540931892.2028499,0.2566360510777038,0.0746031316163897,-0.33836207334561946,-0.097869873046875,0.1667633056640625,-0.9011077880859375,37.13995361328125,22.091644287109375,-75.68453979492188,,,,,,,,,,
0,2018-10-30 16:38:06.7480,00:17,60,0,2018-10-30 16:38:12.2190,1540931892.219398,0.2566360510777038,0.0746031316163897,-0.33836207334561946,-0.097869873046875,0.1667633056640625,-0.9011077880859375,37.0394287109375,22.345718383789062,-75.21218872070312,,,,,,,,,,
0,2018-10-30 16:38:06.7480,00:17,60,0,2018-10-30 16:38:12.2360,1540931892.236141,0.062344601118754964,0.27744173077783885,-0.28666372500056525,-0.05938720703125,0.0582122802734375,-0.7820587158203125,36.92082214355469,22.679916381835938,-75.20620727539062,,,,,,,,,,
0,2018-10-30 16:38:06.7480,00:17,60,0,2018-10-30 16:38:12.2530,1540931892.252754,0.027362914936128142,0.37606258068510817,-0.25119521297067193,-0.06353759765625,0.0115203857421875,-0.7898712158203125,37.0980224609375,22.33319091796875,-75.59977722167969,,,,,,,,,,
0,2018-10-30 16:38:06.7480,00:17,60,0,2018-10-30 16:38:12.2690,1540931892.269417,0.13088051913972615,0.38497911033080245,-0.29511446777160466,-0.078369140625,0.0193328857421875,-0.7960662841796875,37.43492126464844,22.111083984375,-75.66777038574219,,,,,,,,,,
0,2018-10-30 16:38:06.7480,00:17,60,0,2018-10-30 16:38:12.2870,1540931892.287262,0.04449130180308177,0.3827391255379368,-0.33900176463945647,-0.0624542236328125,-0.0504608154296875,-0.704345703125,37.68946838378906,21.67181396484375,-75.90446472167969,,,,,,,,,,
0,2018-10-30 16:38:06.7480,00:17,60,0,2018-10-30 16:38:12.3040,1540931892.303973,-0.09359306808530872,0.28231611452101085,-0.31981688477874365,-0.05682373046875,-0.0839691162109375,-0.7317047119140625,37.7369384765625,22.440475463867188,-75.4049072265625,,,,,,,,,,
0,2018-10-30 16:38:06.7480,00:17,60,0,2018-10-30 16:38:12.3210,1540931892.320596,-0.09359306808530872,0.28231611452101085,-0.31981688477874365,-0.05682373046875,-0.0839691162109375,-0.7317047119140625,37.7369384765625,22.440475463867188,-75.4049072265625,,,,,,,,,,
0,2018-10-30 16:38:06.7480,00:17,60,0,2018-10-30 16:38:12.3370,1540931892.337318,-0.024794562380855725,-0.03180533395048932,-0.37162229219961906,-0.072967529296875,-0.0798492431640625,-0.776214599609375,37.324615478515625,22.755355834960938,-75.25947570800781,,,,,,,,,,
0,2018-10-30 16:38:06.7480,00:17,60,0,2018-10-30 16:38:12.3540,1540931892.3540921,0.02020060950046904,0.033882333284642116,-0.4068905345155384,-0.100006103515625,-0.1077117919921875,-0.7480010986328125,37.36785888671875,22.513946533203125,-75.18806457519531,,,,,,,,,,
0,2018-10-30 16:38:06.7480,00:17,60,0,2018-10-30 16:38:12.3690,1540931892.3694692,0.02020060950046904,0.033882333284642116,-0.4068905345155384,-0.100006103515625,-0.1077117919921875,-0.7480010986328125,37.37684631347656,22.432937622070312,-75.8150634765625,,,,,,,,,,
0,2018-10-30 16:38:06.7480,00:17,60,0,2018-10-30 16:38:12.3860,1540931892.3862371,-0.041337586440209934,0.25016084120328513,-0.24812139244050246,-0.0785064697265625,-0.1884918212890625,-0.7933807373046875,37.57460021972656,22.31561279296875,-76.0428466796875,,,,,,,,,,
0,2018-10-30 16:38:06.7480,00:17,60,0,2018-10-30 16:38:12.4050,1540931892.404595,-0.011302455666296287,0.2085100670188819,-0.18285743413480263,-0.0724945068359375,-0.181121826171875,-0.8762664794921875,37.61505126953125,22.774337768554688,-75.78939819335938,,,,,,,,,,
0,2018-10-30 16:38:06.7480,00:17,60,0,2018-10-30 16:38:12.4200,1540931892.420361,0.04963226797137073,0.18946500311539824,-0.16469094707493612,-0.06512451171875,-0.15496826171875,-0.9116668701171875,37.61505126953125,22.774337768554688,-75.78939819335938,,,,,,,,,,
0,2018-10-30 16:38:06.7480,00:17,60,0,2018-10-30 16:38:12.4360,1540931892.436496,0.07643032644029306,0.24208240835263878,-0.1335775023756494,-0.0524139404296875,-0.1553955078125,-0.9300689697265625,37.55256652832031,22.786483764648438,-75.87040710449219,,,,,,,,,,
0,2018-10-30 16:38:06.7480,00:17,60,0,2018-10-30 16:38:12.4530,1540931892.452899,0.07643032644029306,0.24208240835263878,-0.1335775023756494,-0.0524139404296875,-0.1553955078125,-0.9300689697265625,37.620758056640625,23.084152221679688,-75.69947814941406,,,,,,,,,,
0,2018-10-30 16:38:06.7480,00:17,60,0,2018-10-30 16:38:12.4700,1540931892.469574,-0.0028048412600714537,0.1471258017892095,0.0001821602185614199,0.009246826171875,-0.192962646484375,-1.0507965087890625,37.75032043457031,22.669174194335938,-76.09819030761719,,,,,,,,,,
0,2018-10-30 16:38:06.7480,00:17,60,0,2018-10-30 16:38:12.4860,1540931892.486239,-0.059071309822938574,0.03347140752844289,0.15640132554984648,0.0429840087890625,-0.2136688232421875,-1.12469482421875,37.95378112792969,22.861663818359375,-76.236083984375,,,,,,,,,,
0,2018-10-30 16:38:06.7480,00:17,60,0,2018-10-30 16:38:12.5030,1540931892.502919,-0.059071309822938574,0.03347140752844289,0.15640132554984648,0.0429840087890625,-0.2136688232421875,-1.12469482421875,38.24681091308594,22.880905151367188,-76.45359802246094,,,,,,,,,,
0,2018-10-30 16:38:06.7480,00:17,60,0,2018-10-30 16:38:12.5200,1540931892.5196218,-0.018819494159153946,-0.016302806929029065,0.3351641495086523,-0.00787353515625,-0.139617919921875,-1.2493896484375,38.24681091308594,22.880905151367188,-76.45359802246094,,,,,,,,,,
0,2018-10-30 16:38:06.7480,00:17,60,0,2018-10-30 16:38:12.5360,1540931892.536408,0.018947592207586756,-0.039327698765527136,0.32227631404543183,-0.009307861328125,-0.097198486328125,-1.2796630859375,38.06587219238281,22.917999267578125,-75.9156494140625,,,,,,,,,,
0,2018-10-30 16:38:06.7480,00:17,60,0,2018-10-30 16:38:12.5530,1540931892.5529242,0.07949242906166618,-0.10265074526877721,0.3243253501881388,-0.0002288818359375,-0.0894012451171875,-1.3153076171875,38.01885986328125,22.849777221679688,-75.84269714355469,,,,,,,,,,
0,2018-10-30 16:38:06.7480,00:17,60,0,2018-10-30 16:38:12.5700,1540931892.5696778,0.1863381856795362,-0.18465133944508003,0.2877891768772327,-0.0094451904296875,-0.077545166015625,-1.3236083984375,37.925384521484375,23.022659301757812,-76.23162841796875,,,,,,,,,,
0,2018-10-30 16:38:06.7480,00:17,60,0,2018-10-30 16:38:12.5860,1540931892.586386,0.2834434306104414,-0.18220575861606025,0.2545721012328924,-0.012725830078125,-0.0687713623046875,-1.2860870361328125,38.096893310546875,22.366134643554688,-76.71510314941406,,,,,,,,,,
0,2018-10-30 16:38:06.7480,00:17,60,0,2018-10-30 16:38:12.6030,1540931892.6030369,0.33431566638535304,-0.15670971960407765,0.2481661335468158,0.00018310546875,-0.063934326171875,-1.2299346923828125,38.04158020019531,21.987823486328125,-77.04443359375,,,,,,,,,,
0,2018-10-30 16:38:06.7480,00:17,60,0,2018-10-30 16:38:12.6210,1540931892.620786,0.2912536831393168,-0.13261237279660468,0.2760486312116184,0.0179595947265625,-0.071044921875,-1.1633453369140625,38.04158020019531,21.987823486328125,-77.04443359375,,,,,,,,,,
0,2018-10-30 16:38:06.7480,00:17,60,0,2018-10-30 16:38:12.6370,1540931892.6374202,0.1570466094819727,-0.14887842810259064,0.33817085837935174,0.03582763671875,-0.0743865966796875,-1.1046295166015625,37.85084533691406,22.41510009765625,-76.570556640625,,,,,,,,,,
0,2018-10-30 16:38:06.7480,00:17,60,0,2018-10-30 16:38:12.6540,1540931892.654036,-0.021275993948643036,-0.14316168650662656,0.4185354726980189,0.0365753173828125,-0.068145751953125,-1.0534515380859375,37.57135009765625,22.315292358398438,-76.43333435058594,,,,,,,,,,
0,2018-10-30 16:38:06.7480,00:17,60,0,2018-10-30 16:38:12.6700,1540931892.66974,-0.170231920038955,-0.15926475635389967,0.475307142919674,0.0307159423828125,-0.0517425537109375,-1.0241241455078125,37.636932373046875,22.612716674804688,-76.5748291015625,,,,,,,,,,
0,2018-10-30 16:38:06.7480,00:17,60,0,2018-10-30 16:38:12.6860,1540931892.686374,-0.27167838386279836,-0.18634004989229927,0.4570935179085131,0.02734375,-0.0140838623046875,-0.9908294677734375,37.580352783203125,22.234283447265625,-77.06033325195312,,,,,,,,,,
0,2018-10-30 16:38:06.7480,00:17,60,0,2018-10-30 16:38:12.7030,1540931892.7031422,-0.3520121055128206,-0.10431974832392987,0.42508818056015885,0.0207366943359375,0.0082855224609375,-0.96038818359375,37.78511047363281,22.426925659179688,-77.04203796386719,,,,,,,,,,
0,2018-10-30 16:38:06.7480,00:17,60,0,2018-10-30 16:38:12.7200,1540931892.71987,-0.3376912230670285,-0.05445898113103034,0.36410711791952444,0.0137481689453125,0.016845703125,-0.970703125,37.828155517578125,22.885894775390625,-76.4761962890625,,,,,,,,,,
0,2018-10-30 16:38:06.7480,00:17,60,0,2018-10-30 16:38:12.7360,1540931892.736412,-0.2802564257339436,-0.02009887674682801,0.289175352224619,0.0026397705078125,0.01318359375,-0.9407196044921875,37.828155517578125,22.885894775390625,-76.4761962890625,,,,,,,,,,
0,2018-10-30 16:38:06.7480,00:17,60,0,2018-10-30 16:38:12.7530,1540931892.753032,-0.2498335387053144,0.05457003494848665,0.2068037797084681,-0.012054443359375,-0.0097808837890625,-0.8704986572265625,37.55747985839844,23.405471801757812,-76.4715576171875,,,,,,,,,,
0,2018-10-30 16:38:06.7480,00:17,60,0,2018-10-30 16:38:12.7700,1540931892.769685,-0.21297272605752768,0.150637978634806,0.1672915238793985,0.0048370361328125,-0.0336761474609375,-0.8266448974609375,37.477508544921875,23.888946533203125,-75.83343505859375,,,,,,,,,,
0,2018-10-30 16:38:06.7480,00:17,60,0,2018-10-30 16:38:12.7860,1540931892.78632,-0.18525188227089287,0.2941916824538922,0.17602882278373047,0.0242156982421875,-0.0421142578125,-0.813018798828125,37.95494079589844,23.171051025390625,-76.69285583496094,,,,,,,,,,
0,2018-10-30 16:38:06.7480,00:17,60,0,2018-10-30 16:38:12.8030,1540931892.8031569,-0.14998470521940957,0.33828484167400713,0.1546574876680626,0.02191162109375,-0.0371551513671875,-0.84857177734375,38.423828125,23.234588623046875,-76.35273742675781,,,,,,,,,,
0,2018-10-30 16:38:06.7480,00:17,60,0,2018-10-30 16:38:12.8200,1540931892.819741,-0.07065899004198235,0.23190700245966403,0.05920047313580742,0.013458251953125,-0.021453857421875,-0.88153076171875,38.34014892578125,23.017288208007812,-76.6776123046875,,,,,,,,,,
0,2018-10-30 16:38:06.7480,00:17,60,0,2018-10-30 16:38:12.8360,1540931892.836495,0.04923252749174984,0.06355660573085002,-0.05347654100490011,0.0139007568359375,-0.04058837890625,-0.872467041015625,38.34014892578125,23.017288208007812,-76.6776123046875,,,,,,,,,,
0,2018-10-30 16:38:06.7480,00:17,60,0,2018-10-30 16:38:12.8530,1540931892.8531199,0.14519287947002998,-0.0497790081474341,-0.07184409672706761,0.0384521484375,-0.08837890625,-0.8239593505859375,37.93745422363281,23.642364501953125,-75.97372436523438,,,,,,,,,,
0,2018-10-30 16:38:06.7480,00:17,60,0,2018-10-30 16:38:12.8710,1540931892.871134,0.11115421862940023,-0.05955520619300597,0.020246149555109394,0.05145263671875,-0.154815673828125,-0.7644195556640625,37.91035461425781,23.803482055664062,-75.81307983398438,,,,,,,,,,
0,2018-10-30 16:38:06.7480,00:17,60,0,2018-10-30 16:38:12.8900,1540931892.889669,-0.04894171030071318,-0.010950385770187811,0.15098978221480547,0.041900634765625,-0.199493408203125,-0.7482757568359375,37.89945983886719,23.493148803710938,-76.52777099609375,,,,,,,,,,
0,2018-10-30 16:38:06.7480,00:17,60,0,2018-10-30 16:38:12.9060,1540931892.905647,-0.18687161684587908,0.016225042625198752,0.177828054416188,-0.001861572265625,-0.1812896728515625,-0.804168701171875,38.12818908691406,23.215087890625,-76.44761657714844,,,,,,,,,,
0,2018-10-30 16:38:06.7480,00:17,60,0,2018-10-30 16:38:12.9220,1540931892.9221249,-0.18044247965831878,0.003591006413862845,0.07607905549251161,-0.025115966796875,-0.1225433349609375,-0.877197265625,38.190032958984375,23.202880859375,-76.4447021484375,,,,,,,,,,
0,2018-10-30 16:38:06.7480,00:17,60,0,2018-10-30 16:38:12.9390,1540931892.939062,0.013284912781751273,0.02651656234170096,-0.17130836975156502,-0.003875732421875,-0.1212005615234375,-0.9744873046875,37.894866943359375,23.883834838867188,-75.967041015625,,,,,,,,,,
0,2018-10-30 16:38:06.7480,00:17,60,0,2018-10-30 16:38:12.9560,1540931892.955529,0.013284912781751273,0.02651656234170096,-0.17130836975156502,-0.003875732421875,-0.1212005615234375,-0.9744873046875,37.894866943359375,23.883834838867188,-75.967041015625,,,,,,,,,,
0,2018-10-30 16:38:06.7480,00:17,60,0,2018-10-30 16:38:12.9700,1540931892.9704928,0.07251414805733154,-0.0723413089025854,-0.20571214997764464,0.0282745361328125,-0.1585235595703125,-1.01666259765625,37.564483642578125,23.715438842773438,-76.22547912597656,,,,,,,,,,
0,2018-10-30 16:38:06.7480,00:17,60,0,2018-10-30 16:38:12.9870,1540931892.987297,-0.08624300979279903,-0.38288852887509023,-0.3345604108895313,0.009185791015625,-0.182220458984375,-0.9983978271484375,37.22186279296875,23.627731323242188,-76.24737548828125,,,,,,,,,,
0,2018-10-30 16:38:06.7480,00:17,60,0,2018-10-30 16:38:13.0040,1540931893.003886,-0.08624300979279903,-0.38288852887509023,-0.3345604108895313,0.009185791015625,-0.182220458984375,-0.9983978271484375,36.870269775390625,23.2298583984375,-76.74964904785156,,,,,,,,,,
0,2018-10-30 16:38:06.7480,00:17,60,0,2018-10-30 16:38:13.0210,1540931893.0205169,-0.2082179182473002,-0.3704989708518236,-0.435176767401597,0.000885009765625,-0.17071533203125,-0.9770660400390625,36.55079650878906,23.371795654296875,-76.29341125488281,,,,,,,,,,
0,2018-10-30 16:38:06.7480,00:17,60,0,2018-10-30 16:38:13.0380,1540931893.0375562,-0.17595931427927938,0.47055499827053665,-0.4020212107784375,0.0149688720703125,-0.1264495849609375,-1.075958251953125,36.518463134765625,23.92352294921875,-75.650146484375,,,,,,,,,,
0,2018-10-30 16:38:06.7480,00:17,60,0,2018-10-30 16:38:13.0540,1540931893.054023,-0.17595931427927938,0.47055499827053665,-0.4020212107784375,0.0149688720703125,-0.1264495849609375,-1.075958251953125,36.518463134765625,23.92352294921875,-75.650146484375,,,,,,,,,,
0,2018-10-30 16:38:06.7480,00:17,60,0,2018-10-30 16:38:13.0710,1540931893.0707269,0.06234832954428108,0.5118981773490358,-0.22319367200514278,0.0725555419921875,-0.020751953125,-1.452178955078125,36.549957275390625,24.072113037109375,-75.8770751953125,,,,,,,,,,
0,2018-10-30 16:38:06.7480,00:17,60,0,2018-10-30 16:38:13.0870,1540931893.087383,0.06234832954428108,0.5118981773490358,-0.22319367200514278,0.0725555419921875,-0.020751953125,-1.452178955078125,36.79142761230469,24.413848876953125,-75.46092224121094,,,,,,,,,,
0,2018-10-30 16:38:06.7480,00:17,60,0,2018-10-30 16:38:13.1060,1540931893.105772,-0.038583877873068,0.1018810917137443,-0.23010031397615427,0.0522308349609375,0.0208587646484375,-1.50152587890625,36.61964416503906,23.669525146484375,-76.04438781738281,,,,,,,,,,
0,2018-10-30 16:38:06.7480,00:17,60,0,2018-10-30 16:38:13.1210,1540931893.121455,-0.41020270796326996,-0.05357854007465015,-0.22270657984176728,-0.038665771484375,0.0643157958984375,-1.4705963134765625,36.59059143066406,23.8304443359375,-76.1180419921875,,,,,,,,,,
0,2018-10-30 16:38:06.7480,00:17,60,0,2018-10-30 16:38:13.1380,1540931893.137508,-0.41020270796326996,-0.05357854007465015,-0.22270657984176728,-0.038665771484375,0.0643157958984375,-1.4705963134765625,36.579010009765625,23.91119384765625,-75.80343627929688,,,,,,,,,,
0,2018-10-30 16:38:06.7480,00:17,60,0,2018-10-30 16:38:13.1540,1540931893.154073,-0.2097945096126271,0.04007791124460246,-0.3222294424102464,-0.0530242919921875,0.15692138671875,-1.5177764892578125,36.579010009765625,23.91119384765625,-75.80343627929688,,,,,,,,,,
0,2018-10-30 16:38:06.7480,00:17,60,0,2018-10-30 16:38:13.1700,1540931893.1700191,0.5873061162468474,-0.259399613340879,-0.6451201477191596,-0.032012939453125,0.1612396240234375,-1.362640380859375,35.92767333984375,24.584976196289062,-75.26734924316406,,,,,,,,,,
0,2018-10-30 16:38:06.7480,00:17,60,0,2018-10-30 16:38:13.1860,1540931893.186461,0.5873061162468474,-0.259399613340879,-0.6451201477191596,-0.032012939453125,0.1612396240234375,-1.362640380859375,35.46415710449219,23.821548461914062,-75.47712707519531,,,,,,,,,,
0,2018-10-30 16:38:06.7480,00:17,60,0,2018-10-30 16:38:13.2030,1540931893.20326,0.39907575461280986,-0.29473177152296026,-0.5540951658730142,0.00067138671875,-0.009613037109375,-0.9546661376953125,35.00245666503906,23.3675537109375,-76.0655517578125,,,,,,,,,,
0,2018-10-30 16:38:06.7480,00:17,60,0,2018-10-30 16:38:13.2200,1540931893.220124,0.27766410472886044,-0.18885593817409713,-0.5025339703240991,-0.021636962890625,-0.0579681396484375,-0.8751068115234375,34.82673645019531,23.014007568359375,-76.01022338867188,,,,,,,,,,
0,2018-10-30 16:38:06.7480,00:17,60,0,2018-10-30 16:38:13.2370,1540931893.236701,0.27766410472886044,-0.18885593817409713,-0.5025339703240991,-0.021636962890625,-0.0579681396484375,-0.8751068115234375,34.61236572265625,22.511154174804688,-76.58700561523438,,,,,,,,,,
0,2018-10-30 16:38:06.7480,00:17,60,0,2018-10-30 16:38:13.2530,1540931893.2532768,0.41635381113302594,0.2076866176098294,-0.46245632539560566,-0.0376434326171875,-0.05145263671875,-0.816925048828125,34.61236572265625,22.511154174804688,-76.58700561523438,,,,,,,,,,
0,2018-10-30 16:38:06.7480,00:17,60,0,2018-10-30 16:38:13.2700,1540931893.269963,0.5794191646785777,0.3984722823097979,-0.4183549103761115,-0.0103912353515625,-0.0592193603515625,-0.797515869140625,34.1749267578125,22.987350463867188,-76.04666137695312,,,,,,,,,,
0,2018-10-30 16:38:06.7480,00:17,60,0,2018-10-30 16:38:13.2870,1540931893.286684,0.5794191646785777,0.3984722823097979,-0.4183549103761115,-0.0103912353515625,-0.0592193603515625,-0.797515869140625,34.0745849609375,22.541015625,-76.06874084472656,,,,,,,,,,
0,2018-10-30 16:38:06.7480,00:17,60,0,2018-10-30 16:38:13.3030,1540931893.303495,0.6321771848213744,0.4522540215756211,-0.1998454724123091,0.052337646484375,-0.114166259765625,-0.7527923583984375,34.608612060546875,22.201553344726562,-76.442626953125,,,,,,,,,,
0,2018-10-30 16:38:06.7480,00:17,60,0,2018-10-30 16:38:13.3210,1540931893.321203,0.4921756052642359,0.27695703545944445,-0.11542992375952243,0.054412841796875,-0.117889404296875,-0.7388763427734375,34.894317626953125,20.901138305664062,-76.86579895019531,,,,,,,,,,
0,2018-10-30 16:38:06.7480,00:17,60,0,2018-10-30 16:38:13.3380,1540931893.337549,0.31614252142276134,0.06766000433844412,-0.09744106954436421,0.03729248046875,-0.108306884765625,-0.72381591796875,34.983917236328125,20.727874755859375,-76.9454345703125,,,,,,,,,,
0,2018-10-30 16:38:06.7480,00:17,60,0,2018-10-30 16:38:13.3540,1540931893.3543,0.1601590458479483,-0.03786216121765653,-0.11252574659079102,0.0128631591796875,-0.1053924560546875,-0.720458984375,34.98780822753906,20.728256225585938,-76.47686767578125,,,,,,,,,,
0,2018-10-30 16:38:06.7480,00:17,60,0,2018-10-30 16:38:13.3700,1540931893.36992,0.08897301622623925,-0.0934311478910319,-0.11043543145118784,-0.0059051513671875,-0.1142730712890625,-0.7615509033203125,34.98780822753906,20.728256225585938,-76.47686767578125,,,,,,,,,,
0,2018-10-30 16:38:06.7480,00:17,60,0,2018-10-30 16:38:13.3870,1540931893.38675,0.08420595787499742,-0.14964621744486048,-0.10622018007781042,-0.0189208984375,-0.119293212890625,-0.8002166748046875,34.32685852050781,21.09185791015625,-76.499267578125,,,,,,,,,,
0,2018-10-30 16:38:06.7480,00:17,60,0,2018-10-30 16:38:13.4030,1540931893.40329,0.0849111629316504,-0.1842944758590094,-0.09876705745111466,-0.0302886962890625,-0.1439056396484375,-0.8210296630859375,34.100067138671875,21.37005615234375,-76.34512329101562,,,,,,,,,,
0,2018-10-30 16:38:06.7480,00:17,60,0,2018-10-30 16:38:13.4220,1540931893.421659,0.0426473290643109,-0.07267154087775522,-0.05150127442438834,-0.0255279541015625,-0.1702423095703125,-0.8238983154296875,34.3289794921875,20.391632080078125,-76.7593994140625,,,,,,,,,,
0,2018-10-30 16:38:06.7480,00:17,60,0,2018-10-30 16:38:13.4370,1540931893.437418,0.05076224722189135,0.13242648415251715,0.031206122705221488,-0.003448486328125,-0.192352294921875,-0.8819122314453125,34.55708312988281,20.113525390625,-76.75733947753906,,,,,,,,,,
0,2018-10-30 16:38:06.7480,00:17,60,0,2018-10-30 16:38:13.4530,1540931893.453459,0.16282194062191852,0.2825962790676872,0.07634057791155739,0.01324462890625,-0.183258056640625,-0.986419677734375,34.66917419433594,20.169876098632812,-76.43692016601562,,,,,,,,,,
0,2018-10-30 16:38:06.7480,00:17,60,0,2018-10-30 16:38:13.4700,1540931893.470186,0.3203300759208019,0.32115112848487337,0.0645707374739522,0.02227783203125,-0.173370361328125,-1.069610595703125,34.66917419433594,20.169876098632812,-76.43692016601562,,,,,,,,,,
0,2018-10-30 16:38:06.7480,00:17,60,0,2018-10-30 16:38:13.4870,1540931893.486732,0.3913959969773484,0.25343493144742857,0.05804492753882204,0.0573883056640625,-0.192840576171875,-1.0944671630859375,34.43013000488281,20.528778076171875,-76.0462646484375,,,,,,,,,,
0,2018-10-30 16:38:06.7480,00:17,60,0,2018-10-30 16:38:13.5040,1540931893.503518,0.3457576716927695,0.1313255333578784,0.13929078186219637,0.1011810302734375,-0.2366943359375,-1.091339111328125,34.90362548828125,20.201629638671875,-76.26686096191406,,,,,,,,,,
0,2018-10-30 16:38:06.7480,00:17,60,0,2018-10-30 16:38:13.5200,1540931893.520063,0.21497462424894023,0.06258242140409905,0.3330634480407978,0.1491241455078125,-0.2695159912109375,-1.0860748291015625,35.04866027832031,19.706298828125,-76.5115966796875,,,,,,,,,,
0,2018-10-30 16:38:06.7480,00:17,60,0,2018-10-30 16:38:13.5370,1540931893.536734,0.043614589172227686,0.06004416256914452,0.5676202957850907,0.1711578369140625,-0.2413482666015625,-1.0929412841796875,35.57044982910156,19.447479248046875,-76.64897155761719,,,,,,,,,,
0,2018-10-30 16:38:06.7480,00:17,60,0,2018-10-30 16:38:13.5530,1540931893.553465,-0.04661037908245782,0.028999427425981834,0.7036031652572996,0.1372528076171875,-0.145416259765625,-1.1341705322265625,35.5660400390625,19.137786865234375,-76.58267211914062,,,,,,,,,,
0,2018-10-30 16:38:06.7480,00:17,60,0,2018-10-30 16:38:13.5710,1540931893.571121,0.023997744582704015,-0.10650247515335881,0.6091831856535213,0.061981201171875,-0.029144287109375,-1.1981048583984375,35.5660400390625,19.137786865234375,-76.58267211914062,,,,,,,,,,
0,2018-10-30 16:38:06.7480,00:17,60,0,2018-10-30 16:38:13.5880,1540931893.587772,0.06823125239226611,-0.26941895799397514,0.4012243929802858,0.0287628173828125,0.031951904296875,-1.183380126953125,35.33906555175781,20.116409301757812,-75.93409729003906,,,,,,,,,,
0,2018-10-30 16:38:06.7480,00:17,60,0,2018-10-30 16:38:13.6050,1540931893.604579,-0.07953850174852455,-0.3076217375150528,0.3016227008435403,0.030517578125,0.0022735595703125,-1.1319580078125,35.05891418457031,20.01654052734375,-75.875,,,,,,,,,,
0,2018-10-30 16:38:06.7480,00:17,60,0,2018-10-30 16:38:13.6200,1540931893.6200619,-0.31933858104696544,-0.10996857931209694,0.40686869659459973,0.0459747314453125,-0.0703277587890625,-1.121307373046875,35.19989013671875,20.221206665039062,-76.09390258789062,,,,,,,,,,
0,2018-10-30 16:38:06.7480,00:17,60,0,2018-10-30 16:38:13.6370,1540931893.63674,-0.4510872907020574,0.17047320243371616,0.647119382749482,0.067657470703125,-0.103363037109375,-1.1834259033203125,35.628997802734375,19.826095581054688,-75.92913818359375,,,,,,,,,,
0,2018-10-30 16:38:06.7480,00:17,60,0,2018-10-30 16:38:13.6540,1540931893.653846,-0.37597229952415445,0.22442591664152245,0.7692460913861178,0.0626373291015625,-0.043914794921875,-1.2855987548828125,36.15647888183594,19.87713623046875,-75.97662353515625,,,,,,,,,,
0,2018-10-30 16:38:06.7480,00:17,60,0,2018-10-30 16:38:13.6700,1540931893.6703339,-0.19562862314227764,-0.012727513165597688,0.6768160257488466,0.03790283203125,0.046539306640625,-1.3264923095703125,36.17048645019531,20.49700927734375,-75.48440551757812,,,,,,,,,,
0,2018-10-30 16:38:06.7480,00:17,60,0,2018-10-30 16:38:13.6870,1540931893.686928,-0.09291822306508264,-0.22930695828741968,0.4944776417105004,0.009552001953125,0.0757904052734375,-1.2315826416015625,36.17048645019531,20.49700927734375,-75.48440551757812,,,,,,,,,,
0,2018-10-30 16:38:06.7480,00:17,60,0,2018-10-30 16:38:13.7040,1540931893.703572,-0.13311118286877652,-0.26848232423859425,0.379856786290144,0.0164337158203125,0.0372467041015625,-1.0886993408203125,35.75819396972656,20.811904907226562,-75.3389892578125,,,,,,,,,,
0,2018-10-30 16:38:06.7480,00:17,60,0,2018-10-30 16:38:13.7200,1540931893.7201219,-0.18169230115789298,-0.16422436125195425,0.3907057056227998,0.0413818359375,-0.04656982421875,-1.00469970703125,36.06016540527344,21.141265869140625,-75.07612609863281,,,,,,,,,,
0,2018-10-30 16:38:06.7480,00:17,60,0,2018-10-30 16:38:13.7370,1540931893.736933,-0.1501847086172745,-0.05549415184674414,0.4433044687324098,0.0504302978515625,-0.08050537109375,-0.9723663330078125,36.12480163574219,20.428939819335938,-75.25527954101562,,,,,,,,,,
0,2018-10-30 16:38:06.7480,00:17,60,0,2018-10-30 16:38:13.7530,1540931893.7534552,-0.07964156608271061,0.041212151552867206,0.4337690204493811,0.041107177734375,-0.05560302734375,-0.9394378662109375,36.52861022949219,20.504379272460938,-75.30853271484375,,,,,,,,,,
0,2018-10-30 16:38:06.7480,00:17,60,0,2018-10-30 16:38:13.7700,1540931893.7702599,-0.025963157467182495,0.12852149104613395,0.38032070895203585,0.0378875732421875,-0.0335235595703125,-0.8937530517578125,36.8397216796875,20.443511962890625,-75.05970764160156,,,,,,,,,,
0,2018-10-30 16:38:06.7480,00:17,60,0,2018-10-30 16:38:13.7870,1540931893.786845,0.0032216259706688544,0.1879912097681484,0.3150644738134972,0.0433807373046875,-0.0305633544921875,-0.86260986328125,36.8397216796875,20.443511962890625,-75.05970764160156,,,,,,,,,,
0,2018-10-30 16:38:06.7480,00:17,60,0,2018-10-30 16:38:13.8030,1540931893.803468,0.03914127748922159,0.18777496108763395,0.28292970683616514,0.0583648681640625,-0.0410308837890625,-0.856353759765625,36.60951232910156,21.421829223632812,-74.8016357421875,,,,,,,,,,
0,2018-10-30 16:38:06.7480,00:17,60,0,2018-10-30 16:38:13.8210,1540931893.821278,0.07905700222343821,0.16373780172079677,0.2475520085994435,0.06109619140625,-0.0516510009765625,-0.85333251953125,36.88523864746094,21.211990356445312,-74.79444885253906,,,,,,,,,,
0,2018-10-30 16:38:06.7480,00:17,60,0,2018-10-30 16:38:13.8380,1540931893.837906,0.12372993161286339,0.0823939430693075,0.19603954889847686,0.055938720703125,-0.0587310791015625,-0.8427886962890625,37.18235778808594,20.531234741210938,-75.03779602050781,,,,,,,,,,
0,2018-10-30 16:38:06.7480,00:17,60,0,2018-10-30 16:38:13.8540,1540931893.8536658,0.11431539084332427,-0.15927354478549693,0.0650985760020059,0.058013916015625,-0.0875701904296875,-0.7760772705078125,37.65779113769531,20.204269409179688,-75.02412414550781,,,,,,,,,,
0,2018-10-30 16:38:06.7480,00:17,60,0,2018-10-30 16:38:13.8700,1540931893.8703442,0.11431539084332427,-0.15927354478549693,0.0650985760020059,0.058013916015625,-0.0875701904296875,-0.7760772705078125,37.451080322265625,20.011459350585938,-75.27670288085938,,,,,,,,,,
0,2018-10-30 16:38:06.7480,00:17,60,0,2018-10-30 16:38:13.8870,1540931893.886868,0.005731388981959529,-0.15927008267607984,0.05441610423748006,0.0533905029296875,-0.1328887939453125,-0.74310302734375,37.451080322265625,20.011459350585938,-75.27670288085938,,,,,,,,,,
0,2018-10-30 16:38:06.7480,00:17,60,0,2018-10-30 16:38:13.9040,1540931893.903555,-0.12844399305841264,0.038772163362136604,0.07932251938411912,0.0383453369140625,-0.1794891357421875,-0.80377197265625,37.31367492675781,20.816818237304688,-74.70779418945312,,,,,,,,,,
0,2018-10-30 16:38:06.7480,00:17,60,0,2018-10-30 16:38:13.9200,1540931893.920325,-0.12844399305841264,0.038772163362136604,0.07932251938411912,0.0383453369140625,-0.1794891357421875,-0.80377197265625,37.27044677734375,21.0582275390625,-74.77922058105469,,,,,,,,,,
0,2018-10-30 16:38:06.7480,00:17,60,0,2018-10-30 16:38:13.9370,1540931893.936934,-0.09337229203094115,0.17157202269948285,0.05484806896629092,0.0361175537109375,-0.184539794921875,-0.85455322265625,37.442413330078125,21.102157592773438,-74.69017028808594,,,,,,,,,,
0,2018-10-30 16:38:06.7480,00:17,60,0,2018-10-30 16:38:13.9540,1540931893.9536052,0.06666211787799142,0.13986655728987152,0.02585716365579734,0.0635986328125,-0.2181854248046875,-0.9815673828125,38.009552001953125,19.901748657226562,-75.0162353515625,,,,,,,,,,
0,2018-10-30 16:38:06.7480,00:17,60,0,2018-10-30 16:38:13.9700,1540931893.9702501,0.06666211787799142,0.13986655728987152,0.02585716365579734,0.0635986328125,-0.2181854248046875,-0.9815673828125,37.87611389160156,20.316360473632812,-75.08613586425781,,,,,,,,,,
0,2018-10-30 16:38:06.7480,00:17,60,0,2018-10-30 16:38:13.9870,1540931893.986876,-0.002435727132986471,-0.15339807878856412,-0.041952244019800224,0.02886962890625,-0.2384490966796875,-1.005218505859375,37.87611389160156,20.316360473632812,-75.08613586425781,,,,,,,,,,
0,2018-10-30 16:38:06.7480,00:17,60,0,2018-10-30 16:38:14.0040,1540931894.0037231,-0.13473784166259692,-0.22107273051300366,-0.11160988549191278,0.0110931396484375,-0.2411041259765625,-0.98565673828125,37.905609130859375,20.85589599609375,-74.43997192382812,,,,,,,,,,
0,2018-10-30 16:38:06.7480,00:17,60,0,2018-10-30 16:38:14.0200,1540931894.020362,-0.13473784166259692,-0.22107273051300366,-0.11160988549191278,0.0110931396484375,-0.2411041259765625,-0.98565673828125,37.349090576171875,20.965789794921875,-74.46615600585938,,,,,,,,,,
0,2018-10-30 16:38:06.7480,00:17,60,0,2018-10-30 16:38:14.0370,1540931894.036978,-0.2589748391470114,0.11775752655225169,-0.15506734815982579,0.01678466796875,-0.2173309326171875,-1.051116943359375,37.60783386230469,21.536605834960938,-74.27470397949219,,,,,,,,,,
0,2018-10-30 16:38:06.7480,00:17,60,0,2018-10-30 16:38:14.0550,1540931894.0549731,-0.16593943699396527,0.36133396827642494,-0.1612144565879467,0.032623291015625,-0.1816864013671875,-1.142242431640625,37.940338134765625,21.004791259765625,-74.27641296386719,,,,,,,,,,
0,2018-10-30 16:38:06.7480,00:17,60,0,2018-10-30 16:38:14.0710,1540931894.071357,-0.16593943699396527,0.36133396827642494,-0.1612144565879467,0.032623291015625,-0.1816864013671875,-1.142242431640625,38.42085266113281,20.98760986328125,-74.25091552734375,,,,,,,,,,
0,2018-10-30 16:38:06.7480,00:17,60,0,2018-10-30 16:38:14.0880,1540931894.088016,0.020197147391051936,0.28746080911482597,-0.25665709005031545,0.06524658203125,-0.12786865234375,-1.300445556640625,38.5670166015625,21.192764282226562,-73.84503173828125,,,,,,,,,,
0,2018-10-30 16:38:06.7480,00:17,60,0,2018-10-30 16:38:14.1050,1540931894.104776,-0.05470825300906176,0.04726791355559838,-0.3286830806798354,0.0805206298828125,-0.123046875,-1.2904052734375,38.5670166015625,21.192764282226562,-73.84503173828125,,,,,,,,,,
0,2018-10-30 16:38:06.7480,00:17,60,0,2018-10-30 16:38:14.1210,1540931894.1213288,-0.24151994873041405,0.02532985775996165,-0.34472809361534484,0.0641326904296875,-0.149932861328125,-1.240081787109375,38.129425048828125,21.978179931640625,-73.91764831542969,,,,,,,,,,
0,2018-10-30 16:38:06.7480,00:17,60,0,2018-10-30 16:38:14.1380,1540931894.138377,-0.3508568262319442,0.17021194633077938,-0.3391687448398044,0.040435791015625,-0.141815185546875,-1.240142822265625,38.24720764160156,22.344329833984375,-73.50732421875,,,,,,,,,,
0,2018-10-30 16:38:06.7480,00:17,60,0,2018-10-30 16:38:14.1550,1540931894.155168,-0.27005518717839505,0.33516681266974235,-0.4000238399608781,0.0647430419921875,-0.068023681640625,-1.252655029296875,38.42259216308594,21.68817138671875,-73.522216796875,,,,,,,,,,
0,2018-10-30 16:38:06.7480,00:17,60,0,2018-10-30 16:38:14.1700,1540931894.170477,0.016434367086878978,0.2904355600524445,-0.4504784920768653,0.1121673583984375,-0.0286712646484375,-1.262054443359375,39.0460205078125,21.875823974609375,-73.48130798339844,,,,,,,,,,
0,2018-10-30 16:38:06.7480,00:17,60,0,2018-10-30 16:38:14.1870,1540931894.187139,0.3035244641779659,-0.1179492741507374,-0.44462619558141614,0.1721954345703125,-0.02362060546875,-1.230712890625,38.66929626464844,21.639266967773438,-73.58865356445312,,,,,,,,,,
0,2018-10-30 16:38:06.7480,00:17,60,0,2018-10-30 16:38:14.2040,1540931894.2037802,0.24994672305164278,-0.50625973268912,-0.31337629599849604,0.1942596435546875,-0.053253173828125,-1.0717010498046875,38.66929626464844,21.639266967773438,-73.58865356445312,,,,,,,,,,
0,2018-10-30 16:38:06.7480,00:17,60,0,2018-10-30 16:38:14.2200,1540931894.22045,-0.20585196593487382,-0.5904505105459039,-0.07456824420610966,0.1607818603515625,-0.0839691162109375,-0.9047393798828125,38.03330993652344,22.541946411132812,-73.5115966796875,,,,,,,,,,
0,2018-10-30 16:38:06.7480,00:17,60,0,2018-10-30 16:38:14.2370,1540931894.2370281,-0.7351890547339665,-0.4443257910104552,0.08743956807057163,0.075592041015625,-0.04864501953125,-0.86798095703125,37.74095153808594,22.52276611328125,-73.21597290039062,,,,,,,,,,
0,2018-10-30 16:38:06.7480,00:17,60,0,2018-10-30 16:38:14.2540,1540931894.253753,-0.9526193798240687,-0.24860502249446084,0.0813081722928822,-0.0145263671875,0.0535736083984375,-0.9612884521484375,37.553924560546875,23.259658813476562,-72.886474609375,,,,,,,,,,
0,2018-10-30 16:38:06.7480,00:17,60,0,2018-10-30 16:38:14.2710,1540931894.270611,-0.8034858208890485,-0.12187104517198809,-0.052429119748171944,-0.0675506591796875,0.145782470703125,-1.0625457763671875,37.89915466308594,23.347625732421875,-72.55216979980469,,,,,,,,,,
0,2018-10-30 16:38:06.7480,00:17,60,0,2018-10-30 16:38:14.2870,1540931894.287148,-0.43925539861105334,-0.0024983114186033334,-0.21406968211053132,-0.0982513427734375,0.167724609375,-1.1085968017578125,38.03703308105469,23.242721557617188,-72.548583984375,,,,,,,,,,
0,2018-10-30 16:38:06.7480,00:17,60,0,2018-10-30 16:38:14.3040,1540931894.303817,-0.03562137747646386,0.06747677885544667,-0.28904086258956996,-0.077789306640625,0.141510009765625,-1.1041107177734375,38.03703308105469,23.242721557617188,-72.548583984375,,,,,,,,,,
