SessionID,SessionDate,SessionDuration,SessionFrequency,RecordID,Timestamp,timeIntervalSince1970,GyroX,GyroY,GyroZ,AccX,AccY,AccZ,MagX,MagY,MagZ
0,38:58.8,0:23,60,0,38:58.8,1540931939,-0.171710773,-0.44572688,-0.103311209,0.071121216,-0.13835144,-1.048599243,40.74794006,28.28944397,-76.89674377
0,38:58.8,0:23,60,0,38:58.9,1540931939,-0.135502702,-0.069837139,-0.062163506,0.024291992,-0.188186646,-1.009124756,40.6590271,28.46276855,-76.73902893
0,38:58.8,0:23,60,0,38:58.9,1540931939,-0.058512579,0.157536365,-0.035130024,0.054092407,-0.153060913,-1.031112671,40.920578,28.33343506,-76.729599
0,38:58.8,0:23,60,0,38:58.9,1540931939,0.010897655,0.135293643,-0.049095375,0.083969116,-0.136428833,-1.029907227,40.95025635,28.17259216,-76.5778656
0,38:58.8,0:23,60,0,38:58.9,1540931939,0.02978213,0.011873171,-0.065315091,0.090942383,-0.140869141,-1.003616333,40.95025635,28.17259216,-76.5778656
0,38:58.8,0:23,60,0,38:58.9,1540931939,-0.10691633,-0.048637844,-0.022522353,0.076782227,-0.139648438,-0.988525391,40.78399658,28.4384613,-76.57702637
0,38:58.8,0:23,60,0,38:58.9,1540931939,-0.173546224,-0.073879817,-0.041812961,0.063354492,-0.120880127,-0.994796753,40.59783936,28.47503662,-76.66384888
0,38:58.8,0:23,60,0,38:59.0,1540931939,-0.167951988,-0.162411281,-0.095466602,0.058990479,-0.106582642,-1.017730713,40.52622986,28.87744141,-76.7308197
0,38:58.8,0:23,60,0,38:59.0,1540931939,-0.119432921,-0.169220984,-0.131895982,0.057373047,-0.103240967,-1.015472412,40.55020142,28.40675354,-76.66896057
0,38:58.8,0:23,60,0,38:59.0,1540931939,-0.054374026,-0.100481068,-0.16716529,0.048522949,-0.113800049,-0.989639282,40.22747803,28.5483551,-76.60319519
0,38:58.8,0:23,60,0,38:59.0,1540931939,-0.000636496,-0.001373126,-0.195969241,0.040618896,-0.127593994,-0.962356567,40.22747803,28.5483551,-76.60319519
0,38:58.8,0:23,60,0,38:59.0,1540931939,0.001842907,0.039661393,-0.185210603,0.031295776,-0.16192627,-0.955780029,40.01683044,28.74630737,-76.21699524
0,38:58.8,0:23,60,0,38:59.0,1540931939,0.001842907,0.039661393,-0.185210603,0.031295776,-0.16192627,-0.955780029,39.87831116,28.85116577,-76.2986908
0,38:58.8,0:23,60,0,38:59.1,1540931939,-0.21272665,0.111742777,-0.114393155,0.012527466,-0.20892334,-0.943023682,39.98518372,28.90696716,-76.60301208
0,38:58.8,0:23,60,0,38:59.1,1540931939,-0.21272665,0.111742777,-0.114393155,0.012527466,-0.20892334,-0.943023682,39.94194031,29.14839172,-76.67443848
0,38:58.8,0:23,60,0,38:59.1,1540931939,-0.290374307,0.160993414,-0.072550101,0.025894165,-0.190628052,-1.009552002,40.11521912,29.19242859,-76.42918396
0,38:58.8,0:23,60,0,38:59.1,1540931939,-0.159693792,0.161760937,-0.037242177,0.033355713,-0.168502808,-1.048309326,40.11521912,29.19242859,-76.42918396
0,38:58.8,0:23,60,0,38:59.1,1540931939,-0.159693792,0.161760937,-0.037242177,0.033355713,-0.168502808,-1.048309326,40.07392883,29.43403625,-76.26634216
0,38:58.8,0:23,60,0,38:59.1,1540931939,-0.031840221,0.082606463,-0.024520257,0.03729248,-0.158508301,-1.040298462,40.01144409,29.44619751,-76.34733582
0,38:58.8,0:23,60,0,38:59.2,1540931939,-0.061449246,-0.031832765,-0.006449644,0.025192261,-0.176071167,-0.995071411,39.82463074,29.48268127,-76.51225281
0,38:58.8,0:23,60,0,38:59.2,1540931939,-0.182157289,0.024509338,-0.011705392,0.013214111,-0.181900024,-0.960876465,39.79884338,29.6439209,-76.19543457
0,38:58.8,0:23,60,0,38:59.2,1540931939,-0.262870511,0.076089708,-0.004126302,0.020889282,-0.188323975,-0.966812134,39.84648132,29.71220398,-76.19029236
0,38:58.8,0:23,60,0,38:59.2,1540931939,-0.246212705,0.058542672,0.016194416,0.037963867,-0.186233521,-1.00138855,39.83293152,29.79275513,-76.10997009
0,38:58.8,0:23,60,0,38:59.2,1540931939,-0.246212705,0.058542672,0.016194416,0.04574585,-0.176116943,-1.019210815,39.83293152,29.79275513,-76.10997009
0,38:58.8,0:23,60,0,38:59.2,1540931939,-0.122216457,-0.094102797,0.023472303,0.044052124,-0.175338745,-1.006622314,39.94566345,29.84915161,-75.71144104
0,38:58.8,0:23,60,0,38:59.3,1540931939,-0.114595023,-0.179610242,0.020152406,0.036437988,-0.19078064,-0.978378296,39.71432495,30.12693787,-76.10397339
0,38:58.8,0:23,60,0,38:59.3,1540931939,-0.114595023,-0.179610242,0.020152406,0.013183594,-0.208145142,-0.94909668,39.68087769,29.97817993,-76.11134338
0,38:58.8,0:23,60,0,38:59.3,1540931939,-0.158201622,-0.11739001,-0.017240506,-0.010192871,-0.213531494,-0.916549683,39.43418884,30.02708435,-76.0448761
0,38:58.8,0:23,60,0,38:59.3,1540931939,-0.140954725,0.023199329,-0.053480536,-0.019607544,-0.215759277,-0.903167725,39.45999146,29.86584473,-76.36170959
0,38:58.8,0:23,60,0,38:59.3,1540931939,-0.089022285,0.156884689,-0.069391059,-0.012832642,-0.220504761,-0.915939331,39.45999146,29.86584473,-76.36170959
0,38:58.8,0:23,60,0,38:59.3,1540931939,-0.013049489,0.162640846,-0.068331387,-0.001953125,-0.233413696,-0.962677002,39.5423584,30.08302307,-76.19303894
0,38:58.8,0:23,60,0,38:59.4,1540931939,0.025748507,0.0303121,-0.06850396,0.011535645,-0.232162476,-0.990615845,39.33876038,30.19976807,-76.66810608
0,38:58.8,0:23,60,0,38:59.4,1540931939,0.010630274,-0.121955467,-0.092247106,0.005142212,-0.228286743,-0.982788086,39.05926514,30.09996033,-76.53089905
0,38:58.8,0:23,60,0,38:59.4,1540931939,-0.048856489,-0.176392344,-0.130850958,-0.022872925,-0.236572266,-0.95880127,38.91439819,29.89492798,-76.78059387
0,38:58.8,0:23,60,0,38:59.4,1540931939,-0.149578307,-0.124577083,-0.133975379,-0.031570435,-0.25151062,-0.941711426,38.9440918,29.73408508,-76.62886047
0,38:58.8,0:23,60,0,38:59.4,1540931939,-0.230580482,0.012354671,-0.101661115,-0.028091431,-0.270568848,-0.959060669,38.9440918,29.73408508,-76.62886047
0,38:58.8,0:23,60,0,38:59.4,1540931939,-0.216827385,0.142818938,-0.031897479,-0.016815186,-0.276397705,-1.019882202,38.87440491,30.13665771,-76.46153259
0,38:58.8,0:23,60,0,38:59.5,1540931939,-0.137383959,0.191613375,0.017403225,0.007949829,-0.25680542,-1.086120605,38.86805725,29.82676697,-76.62954712
0,38:58.8,0:23,60,0,38:59.5,1540931939,-0.076581061,0.165955682,0.066616578,0.024337769,-0.230651855,-1.130859375,38.67274475,30.25360107,-76.70233154
0,38:58.8,0:23,60,0,38:59.5,1540931939,-0.054219563,0.09090008,0.118990836,0.030838013,-0.22354126,-1.162261963,38.72822571,29.93148804,-76.86741638
0,38:58.8,0:23,60,0,38:59.5,1540931940,-0.10763352,0.02744787,0.156405587,0.021148682,-0.221817017,-1.171035767,38.92793274,29.81436157,-76.86091614
0,38:58.8,0:23,60,0,38:59.5,1540931940,-0.189918806,0.033470076,0.200338157,0.013519287,-0.207687378,-1.168228149,38.94213867,29.73388672,-76.86314392
0,38:58.8,0:23,60,0,38:59.5,1540931940,-0.222042654,0.104941863,0.256118865,0.0103302,-0.1900177,-1.189697266,38.94213867,29.73388672,-76.86314392
0,38:58.8,0:23,60,0,38:59.6,1540931940,-0.181276848,0.186594382,0.295831657,0.014465332,-0.161087036,-1.228088379,39.09353638,29.54840088,-76.93988037
0,38:58.8,0:23,60,0,38:59.6,1540931940,-0.084155624,0.194383595,0.278684095,0.019927979,-0.117111206,-1.256637573,39.20433044,29.60461426,-76.77565002
0,38:58.8,0:23,60,0,38:59.6,1540931940,0.032011463,0.092858835,0.2335547,0.023910522,-0.089797974,-1.26083374,39.17024231,29.45576477,-76.86108398
0,38:58.8,0:23,60,0,38:59.6,1540931940,0.116471486,-0.01487695,0.194850447,0.026992798,-0.097122192,-1.225708008,39.30551147,29.35061646,-77.16989136
0,38:58.8,0:23,60,0,38:59.6,1540931940,0.092720084,0.040457412,0.208845625,0.045730591,-0.106246948,-1.138458252,39.43894958,28.93598938,-77.1000061
0,38:58.8,0:23,60,0,38:59.6,1540931940,-0.028031635,0.228297887,0.318334303,0.075927734,-0.116958618,-1.074905396,39.43894958,28.93598938,-77.1000061
0,38:58.8,0:23,60,0,38:59.7,1540931940,-0.160227755,0.438846337,0.456767014,0.095993042,-0.124465942,-1.077865601,39.87965393,28.46014404,-77.24986267
0,38:58.8,0:23,60,0,38:59.7,1540931940,-0.175427747,0.518757149,0.525404399,0.097991943,-0.094818115,-1.141403198,40.03675842,28.58447266,-77.23669434
0,38:58.8,0:23,60,0,38:59.7,1540931940,-0.031500402,0.339162886,0.461967369,0.083068848,-0.03453064,-1.20942688,40.45166016,28.26989746,-77.06973267
0,38:58.8,0:23,60,0,38:59.7,1540931940,0.229475004,0.027960262,0.300891397,0.086044312,0.026565552,-1.210342407,40.47746277,28.10864258,-77.38658142
0,38:58.8,0:23,60,0,38:59.7,1540931940,0.446764448,-0.318721793,0.191183541,0.123947144,0.045669556,-1.1484375,40.21299744,27.22801208,-77.66790771
0,38:58.8,0:23,60,0,38:59.7,1540931940,0.550896709,-0.463433972,0.155641526,0.117156982,-0.051651001,-0.920440674,39.97808838,26.49578857,-78.41047668
0,38:58.8,0:23,60,0,38:59.8,1540931940,0.529683033,-0.356330954,0.200754942,0.117156982,-0.051651001,-0.920440674,39.97808838,26.49578857,-78.41047668
0,38:58.8,0:23,60,0,38:59.8,1540931940,0.44273109,-0.170832463,0.273823294,0.108001709,-0.084762573,-0.851623535,39.63235474,26.09851074,-78.2098999
0,38:58.8,0:23,60,0,38:59.8,1540931940,0.301622701,0.071660871,0.289148454,0.094818115,-0.059616089,-0.8097229,39.72846985,25.534729,-78.6159668
0,38:58.8,0:23,60,0,38:59.8,1540931940,0.16953284,0.254759055,0.259421984,0.094818115,-0.059616089,-0.8097229,40.03570557,25.47348022,-78.83570862
0,38:58.8,0:23,60,0,38:59.8,1540931940,0.117433154,0.315893516,0.243447012,0.121246338,-0.046157837,-0.858383179,40.25938416,24.88569641,-78.7673645
0,38:58.8,0:23,60,0,38:59.8,1540931940,0.224038693,-0.00311004,0.239815259,0.160354614,-0.048599243,-0.956130981,40.32972717,24.48316956,-78.85658264
0,38:58.8,0:23,60,0,38:59.9,1540931940,0.224038693,-0.00311004,0.239815259,0.160354614,-0.048599243,-0.956130981,40.32972717,24.48316956,-78.85658264
0,38:58.8,0:23,60,0,38:59.9,1540931940,0.288180662,-0.253367553,0.18701889,0.123764038,-0.051376343,-0.874511719,40.0716095,23.91241455,-78.96994019
0,38:58.8,0:23,60,0,38:59.9,1540931940,0.282880971,-0.277816704,0.092754172,0.093414307,-0.078598022,-0.81300354,39.6033783,23.84893799,-79.23194885
0,38:58.8,0:23,60,0,38:59.9,1540931940,0.282880971,-0.277816704,0.092754172,0.093414307,-0.078598022,-0.81300354,39.53517151,23.55125427,-79.40284729
0,38:58.8,0:23,60,0,38:59.9,1540931940,0.212908011,-0.099726861,0.084423804,0.068527222,-0.148727417,-0.786117554,39.48052979,23.17303467,-79.65409851
0,38:58.8,0:23,60,0,38:59.9,1540931940,0.115720208,0.093860982,0.052560147,0.089065552,-0.163833618,-0.839080811,39.37823486,22.72651672,-79.91044617
0,38:58.8,0:23,60,0,39:00.0,1540931940,0.115720208,0.093860982,0.052560147,0.089065552,-0.163833618,-0.839080811,39.37823486,22.72651672,-79.91044617
0,38:58.8,0:23,60,0,39:00.0,1540931940,0.200803145,-0.062488944,-0.002267149,0.117431641,-0.185974121,-0.915023804,39.2230835,22.60235596,-79.68936157
0,38:58.8,0:23,60,0,39:00.0,1540931940,0.197219862,-0.108916631,-0.014103036,0.115768433,-0.219146729,-0.921859741,39.16973877,22.22425842,-79.78437805
0,38:58.8,0:23,60,0,39:00.0,1540931940,0.197219862,-0.108916631,-0.014103036,0.103607178,-0.246368408,-0.917724609,39.02549744,22.01928711,-79.95596313
0,38:58.8,0:23,60,0,39:00.0,1540931940,0.069933279,-0.09867358,-0.106153867,0.079605103,-0.258148193,-0.926834106,38.69708252,21.85107422,-79.98010254
0,38:58.8,0:23,60,0,39:00.0,1540931940,0.011867845,-0.013450828,-0.180995086,0.067657471,-0.257522583,-0.952011108,38.59480286,21.40457153,-80.23646545
0,38:58.8,0:23,60,0,39:00.1,1540931940,0.011867845,-0.013450828,-0.180995086,0.071105957,-0.250015259,-1.002105713,38.59480286,21.40457153,-80.23646545
0,38:58.8,0:23,60,0,39:00.1,1540931940,0.016489495,0.341559731,-0.252306017,0.088104248,-0.249038696,-1.076156616,38.57556152,21.17530823,-80.24604797
0,38:58.8,0:23,60,0,39:00.1,1540931940,0.065220549,0.47839641,-0.237156892,0.101119995,-0.241226196,-1.161178589,38.5897522,21.09481812,-80.24827576
0,38:58.8,0:23,60,0,39:00.1,1540931940,0.185478251,0.483731787,-0.237179262,0.115997314,-0.219284058,-1.249481201,38.7250061,20.98963928,-80.55706787
0,38:58.8,0:23,60,0,39:00.1,1540931940,0.372623108,0.528586077,-0.272507426,0.11239624,-0.182235718,-1.293060303,38.84558105,20.65563965,-80.32876587
0,38:58.8,0:23,60,0,39:00.1,1540931940,0.663699691,0.435812997,-0.221290577,0.147583008,-0.173370361,-1.348937988,39.25871277,19.64045715,-80.89051819
0,38:58.8,0:23,60,0,39:00.2,1540931940,0.979161242,0.071632375,0.022340726,0.282577515,-0.212890625,-1.4034729,39.16882324,18.80400085,-80.77041626
0,38:58.8,0:23,60,0,39:00.2,1540931940,1.155850263,-0.257544988,0.230710178,0.293395996,-0.19619751,-1.301361084,39.16882324,18.80400085,-80.77041626
0,38:58.8,0:23,60,0,39:00.2,1540931940,1.067059673,-0.367411036,0.329115312,0.146850586,-0.193115234,-1.153030396,39.05577087,17.7379303,-81.12850952
0,38:58.8,0:23,60,0,39:00.2,1540931940,0.51257968,-0.22607175,0.395816578,0.091903687,-0.147766113,-0.967086792,38.67399597,17.19160461,-81.24768066
0,38:58.8,0:23,60,0,39:00.2,1540931940,-0.328452984,-0.092202632,0.313727833,0.05128479,-0.086517334,-0.888656616,38.39451599,17.09181213,-81.11047363
0,38:58.8,0:23,60,0,39:00.2,1540931940,-0.874259061,-0.228553816,0.018133198,-0.032516479,-0.009063721,-0.988006592,38.29203796,17.34568787,-80.87242126
0,38:58.8,0:23,60,0,39:00.3,1540931940,-0.922381582,-0.474623776,-0.271291427,-0.045425415,0.061294556,-1.127456665,37.54086304,17.88244629,-80.89329529
0,38:58.8,0:23,60,0,39:00.3,1540931940,-0.574407628,-0.517225032,-0.460970282,-0.05015564,0.081100464,-1.161376953,37.54086304,17.88244629,-80.89329529
0,38:58.8,0:23,60,0,39:00.3,1540931940,-0.068078653,-0.410272216,-0.562692116,-0.052322388,0.042922974,-1.11932373,37.16986084,17.95571899,-80.91075134
0,38:58.8,0:23,60,0,39:00.3,1540931940,0.292734134,-0.169313129,-0.557127441,-0.042282104,-0.022659302,-1.012359619,36.68870544,17.97285461,-81.01434326
0,38:58.8,0:23,60,0,39:00.3,1540931940,0.387955725,0.110524381,-0.440081245,-0.024780273,-0.097702026,-0.909912109,36.46844482,17.8605957,-81.18663025
0,38:58.8,0:23,60,0,39:00.3,1540931940,0.293937084,0.221416811,-0.356394603,-0.037567139,-0.14704895,-0.850357056,36.59750366,17.1362915,-81.05044556
0,38:58.8,0:23,60,0,39:00.4,1540931940,0.129530829,0.115996911,-0.376831435,-0.048690796,-0.142883301,-0.825164795,36.45018005,16.62174988,-80.9995575
0,38:58.8,0:23,60,0,39:00.4,1540931940,0.00153984,-0.158362211,-0.432823865,-0.035064697,-0.117965698,-0.81362915,36.45018005,16.62174988,-80.9995575
0,38:58.8,0:23,60,0,39:00.4,1540931940,-0.101127417,-0.313047129,-0.45333633,-0.026824951,-0.122528076,-0.783920288,36.06369019,16.77539063,-81.17098999
0,38:58.8,0:23,60,0,39:00.4,1540931940,-0.171563234,-0.281175749,-0.410445588,-0.024856567,-0.160690308,-0.743682861,35.6443634,16.78030396,-81.27168274
0,38:58.8,0:23,60,0,39:00.4,1540931940,-0.190215482,-0.232577054,-0.347200306,-0.02911377,-0.202301025,-0.750320435,35.58251953,16.79251099,-81.27458191
0,38:58.8,0:23,60,0,39:00.4,1540931940,-0.229632663,-0.153438293,-0.297833555,-0.035614014,-0.205673218,-0.759719849,34.91194153,17.23703003,-80.74809265
0,38:58.8,0:23,60,0,39:00.5,1540931940,-0.375143257,-0.031115575,-0.244104547,-0.033065796,-0.218154907,-0.758743286,34.84945679,17.24917603,-80.82910156
0,38:58.8,0:23,60,0,39:00.5,1540931940,-0.529059055,0.098781971,-0.171088659,-0.024017334,-0.247421265,-0.789413452,34.8094635,17.49092102,-80.51002502
0,38:58.8,0:23,60,0,39:00.5,1540931940,-0.610321953,0.11643074,-0.061819426,0.005950928,-0.255981445,-0.874679565,34.8094635,17.49092102,-80.51002502
0,38:58.8,0:23,60,0,39:00.5,1540931941,-0.603540746,0.07702501,0.038791338,0.017318726,-0.238418579,-0.984329224,34.9394989,17.77638245,-80.3361969
0,38:58.8,0:23,60,0,39:00.5,1540931941,-0.461873892,-0.097503654,0.06638435,0.032501221,-0.1743927,-1.149932861,34.80732727,18.19111633,-80.24989319
0,38:58.8,0:23,60,0,39:00.5,1540931941,-0.242877362,-0.349487429,0.073516828,0.032501221,-0.1743927,-1.149932861,34.42082214,18.34474182,-80.42132568
0,38:58.8,0:23,60,0,39:00.6,1540931941,-0.070159115,-0.468186116,0.1300845,0.05255127,-0.179443359,-1.16444397,34.07185364,17.94715881,-80.61123657
0,38:58.8,0:23,60,0,39:00.6,1540931941,0.027117904,-0.425039445,0.196507733,-0.001785278,-0.174194336,-1.144744873,33.70278931,18.02059937,-80.39437866
0,38:58.8,0:23,60,0,39:00.6,1540931941,0.112734272,-0.294965064,0.191293263,-0.001785278,-0.174194336,-1.144744873,33.70278931,18.02059937,-80.39437866
0,38:58.8,0:23,60,0,39:00.6,1540931941,0.223187547,-0.216990637,0.172087344,-0.021759033,-0.155883789,-1.161956787,33.7118988,17.63035583,-80.40841675
0,38:58.8,0:23,60,0,39:00.6,1540931941,0.271340961,-0.113072227,0.306061658,0.028671265,-0.155914307,-1.183853149,33.43112183,17.53041077,-80.42741394
0,38:58.8,0:23,60,0,39:00.6,1540931941,0.271340961,-0.113072227,0.306061658,0.028671265,-0.155914307,-1.183853149,33.51565552,17.04740906,-80.51887512
0,38:58.8,0:23,60,0,39:00.7,1540931941,0.235210387,-0.132365764,0.348881027,0.048965454,-0.110748291,-1.185348511,33.33799744,16.69366455,-80.6978302
0,38:58.8,0:23,60,0,39:00.7,1540931941,0.059014584,-0.253960906,0.344490007,0.056182861,-0.118850708,-1.154083252,33.18281555,16.56950378,-80.47669983
0,38:58.8,0:23,60,0,39:00.7,1540931941,0.059014584,-0.253960906,0.344490007,0.056182861,-0.118850708,-1.154083252,33.18281555,16.56950378,-80.47669983
0,38:58.8,0:23,60,0,39:00.7,1540931941,-0.194503171,-0.035998215,0.54292933,0.082809448,-0.177093506,-1.131317139,33.17582703,16.25956726,-80.72280884
0,38:58.8,0:23,60,0,39:00.7,1540931941,-0.385064331,0.278375169,0.823928778,0.056091309,-0.095458984,-1.181015015,33.32640076,16.7743988,-80.38320923
0,38:58.8,0:23,60,0,39:00.7,1540931941,-0.385064331,0.278375169,0.823928778,0.056091309,-0.095458984,-1.181015015,33.80032349,17.14772034,-80.03129578
0,38:58.8,0:23,60,0,39:00.8,1540931941,-0.135174334,0.096581667,0.515236183,0.031585693,0.043609619,-1.08164978,34.00135803,17.0307312,-79.86860657
0,38:58.8,0:23,60,0,39:00.8,1540931941,-0.131841388,-0.013461747,0.436926731,0.043792725,0.001098633,-1.011566162,34.01359558,16.95004272,-80.10513306
0,38:58.8,0:23,60,0,39:00.8,1540931941,-0.131841388,-0.013461747,0.436926731,0.039993286,-0.03894043,-0.985549927,34.01359558,16.95004272,-80.10513306
0,38:58.8,0:23,60,0,39:00.8,1540931941,-0.137133621,-0.267032233,0.297403188,0.028060913,-0.049362183,-0.95880127,33.82872009,16.98674011,-80.03575134
0,38:58.8,0:23,60,0,39:00.8,1540931941,-0.078853004,-0.252187773,0.232084902,0.024734497,-0.037765503,-0.905914307,33.85124207,17.21632385,-79.63566589
0,38:58.8,0:23,60,0,39:00.8,1540931941,-0.078853004,-0.252187773,0.232084902,0.041717529,-0.041107178,-0.858932495,33.69282532,17.09184265,-79.80505371
0,38:58.8,0:23,60,0,39:00.9,1540931941,0.070857662,0.080498305,0.256018198,0.05430603,-0.049743652,-0.830871582,33.54141235,17.27732849,-79.72833252
0,38:58.8,0:23,60,0,39:00.9,1540931941,0.070857662,0.080498305,0.256018198,0.05430603,-0.049743652,-0.830871582,33.93511963,16.73323059,-79.80522156
0,38:58.8,0:23,60,0,39:00.9,1540931941,0.256823005,0.224824858,0.2325925,0.020492554,-0.063613892,-0.82774353,34.17233276,16.06489563,-79.81719971
0,38:58.8,0:23,60,0,39:00.9,1540931941,0.314971529,0.116362829,0.168193004,0.011169434,-0.066513062,-0.807449341,34.17233276,16.06489563,-79.81719971
0,38:58.8,0:23,60,0,39:00.9,1540931941,0.314971529,0.116362829,0.168193004,0.015792847,-0.076187134,-0.761398315,34.17675781,16.37458801,-79.88349915
0,38:58.8,0:23,60,0,39:00.9,1540931941,0.224995567,-0.053256564,0.065202706,0.025375366,-0.106887817,-0.705657959,33.99060059,16.41113281,-79.9703064
0,38:58.8,0:23,60,0,39:01.0,1540931941,0.112546786,0.099188103,0.080409888,0.01020813,-0.154190063,-0.686813354,33.98681641,16.10153198,-79.82592773
0,38:58.8,0:23,60,0,39:01.0,1540931941,0.112546786,0.099188103,0.080409888,-0.024093628,-0.175338745,-0.734603882,34.24461365,15.66255188,-79.67211914
0,38:58.8,0:23,60,0,39:01.0,1540931941,0.016447949,0.404205536,0.040116527,-0.031326294,-0.161453247,-0.78666687,34.42442322,15.31608582,-79.75332642
0,38:58.8,0:23,60,0,39:01.0,1540931941,-0.002254898,0.646768378,0.014719558,-0.019760132,-0.17098999,-0.847045898,34.42442322,15.31608582,-79.75332642
0,38:58.8,0:23,60,0,39:01.0,1540931941,-0.006683735,1.050486821,-0.043678771,-0.040634155,-0.163146973,-0.908798218,35.04849243,15.5038147,-79.63430786
0,38:58.8,0:23,60,0,39:01.0,1540931941,0.042751991,1.223656741,-0.190185122,-0.0365448,-0.12322998,-0.988891602,35.70028687,15.5304718,-79.59786987
0,38:58.8,0:23,60,0,39:01.1,1540931941,0.076447371,0.961166263,-0.356500597,0.025283813,-0.118225098,-1.080871582,36.44801331,15.69377136,-79.47305298
0,38:58.8,0:23,60,0,39:01.1,1540931941,-0.018398981,0.618454715,-0.439356865,0.098373413,-0.166427612,-1.123748779,37.00454712,15.5838623,-79.4468689
0,38:58.8,0:23,60,0,39:01.1,1540931941,-0.083129242,0.333920986,-0.537140683,0.11277771,-0.188278198,-1.164764404,37.17146301,15.31803894,-79.36962891
0,38:58.8,0:23,60,0,39:01.1,1540931941,-0.035464517,0.108972823,-0.658437018,0.11505127,-0.189071655,-1.214889526,37.17146301,15.31803894,-79.36962891
0,38:58.8,0:23,60,0,39:01.1,1540931941,0.01086117,0.100969758,-0.661670629,0.140167236,-0.220001221,-1.241027832,36.84692383,15.15020752,-78.9251709
0,38:58.8,0:23,60,0,39:01.1,1540931941,0.094689225,0.281597061,-0.591861986,0.160736084,-0.251846313,-1.279998779,36.89701843,15.52799988,-79.22062683
0,38:58.8,0:23,60,0,39:01.2,1540931941,0.269100444,0.31686051,-0.632553223,0.166366577,-0.221450806,-1.335327148,36.98921204,15.35499573,-78.98786926
0,38:58.8,0:23,60,0,39:01.2,1540931941,0.457858644,-0.038166294,-0.750831398,0.182983398,-0.179336548,-1.397384644,36.79733276,15.08174133,-79.16459656
0,38:58.8,0:23,60,0,39:01.2,1540931941,0.456909227,-0.24903246,-0.760729036,0.198623657,-0.191864014,-1.35345459,36.66288757,14.48658752,-79.2721405
0,38:58.8,0:23,60,0,39:01.2,1540931941,0.211975372,-0.140137667,-0.626678023,0.173431396,-0.246932983,-1.25201416,36.41751099,14.53562927,-79.04948425
0,38:58.8,0:23,60,0,39:01.2,1540931941,-0.146964947,0.088425737,-0.391790944,0.162307739,-0.281921387,-1.229309082,36.41751099,14.53562927,-79.04948425
0,38:58.8,0:23,60,0,39:01.2,1540931941,-0.419099797,0.341230032,-0.206154501,0.148574829,-0.231918335,-1.263580322,36.37686157,14.77728271,-78.8085022
0,38:58.8,0:23,60,0,39:01.3,1540931941,-0.416158069,0.323797512,-0.181546893,0.126419067,-0.119750977,-1.349395752,36.43087769,15.15545654,-78.63536072
0,38:58.8,0:23,60,0,39:01.3,1540931941,-0.139770683,0.089087,-0.303981196,0.100692749,-0.003417969,-1.379425049,36.64851379,15.26745605,-78.77548218
0,38:58.8,0:23,60,0,39:01.3,1540931941,0.241924749,-0.275247286,-0.451230569,0.09022522,0.047744751,-1.324462891,36.41293335,14.92630005,-78.48878479
0,38:58.8,0:23,60,0,39:01.3,1540931941,0.483126184,-0.625952046,-0.423878839,0.140686035,-0.058563232,-0.964736938,35.78248596,14.42869568,-78.77575684
0,38:58.8,0:23,60,0,39:01.3,1540931941,0.529440419,-0.711336186,-0.280499839,0.140686035,-0.058563232,-0.964736938,35.78248596,14.42869568,-78.77575684
0,38:58.8,0:23,60,0,39:01.3,1540931941,0.477683748,-0.485061503,-0.210602246,0.073928833,-0.070968628,-0.786224365,35.1758728,14.16081238,-78.50650024
0,38:58.8,0:23,60,0,39:01.4,1540931941,0.411253325,-0.266994682,-0.216742431,0.032470703,-0.055130005,-0.647369385,34.79916382,13.92428589,-78.61387634
0,38:58.8,0:23,60,0,39:01.4,1540931941,0.342917677,-0.139726209,-0.232631915,0.032470703,-0.055130005,-0.647369385,34.89135742,13.75128174,-78.38111877
0,38:58.8,0:23,60,0,39:01.4,1540931941,0.30414791,-0.215220967,-0.194164683,0.055755615,-0.071289063,-0.653320313,34.60484314,13.34150696,-78.49002075
0,38:58.8,0:23,60,0,39:01.4,1540931941,0.200717924,-0.626972569,-0.031876707,0.058776855,-0.105148315,-0.640289307,34.29127502,13.09288025,-78.4382782
0,38:58.8,0:23,60,0,39:01.4,1540931941,0.200717924,-0.626972569,-0.031876707,0.058776855,-0.105148315,-0.640289307,34.29127502,13.09288025,-78.4382782
0,38:58.8,0:23,60,0,39:01.4,1540931941,0.052561745,-0.572555932,-0.030703052,-0.027694702,-0.122528076,-0.578659058,33.76702881,13.04219055,-78.00032043
0,38:58.8,0:23,60,0,39:01.5,1540931941,-0.209791846,-0.106134426,-0.003292999,-0.04133606,-0.155593872,-0.654418945,33.25178528,12.91046143,-78.18936157
0,38:58.8,0:23,60,0,39:01.5,1540931941,-0.209791846,-0.106134426,-0.003292999,-0.04133606,-0.155593872,-0.654418945,33.30448914,13.28849792,-78.17242432
0,38:58.8,0:23,60,0,39:01.5,1540931941,-0.177495159,-0.025525067,0.047129163,-0.021255493,-0.15625,-0.842285156,33.16726685,13.39347839,-78.09791565
0,38:58.8,0:23,60,0,39:01.5,1540931942,-0.078512918,-0.03201599,0.080294041,-0.021255493,-0.15625,-0.842285156,33.24395752,13.30084229,-78.01914978
0,38:58.8,0:23,60,0,39:01.5,1540931942,-0.002453038,-0.002718022,0.144563575,-0.00050354,-0.15763855,-0.896911621,33.28848267,13.05957031,-77.79151917
0,38:58.8,0:23,60,0,39:01.5,1540931942,0.050307912,0.233429532,0.199456118,-0.024200439,-0.142700195,-0.980255127,33.28848267,13.05957031,-77.79151917
0,38:58.8,0:23,60,0,39:01.6,1540931942,0.050307912,0.233429532,0.199456118,-0.024200439,-0.142700195,-0.980255127,33.39926147,13.11576843,-77.62727356
0,38:58.8,0:23,60,0,39:01.6,1540931942,0.099407015,0.297811984,0.210232333,0.008239746,-0.145889282,-1.095321655,33.60270691,13.3082428,-77.76516724
0,38:58.8,0:23,60,0,39:01.6,1540931942,0.044604486,0.10326274,0.306383101,0.020233154,-0.156143188,-1.134460449,33.72392273,12.97434998,-77.45875549
0,38:58.8,0:23,60,0,39:01.6,1540931942,0.044604486,0.10326274,0.306383101,0.020233154,-0.156143188,-1.134460449,33.98989868,13.1546936,-77.51565552
0,38:58.8,0:23,60,0,39:01.6,1540931942,-0.049153432,-0.002822418,0.282715855,0.011062622,-0.177490234,-1.183502197,33.97062683,12.92544556,-77.52523804
0,38:58.8,0:23,60,0,39:01.6,1540931942,-0.137517916,0.026023345,0.313827702,0.016571045,-0.180709839,-1.202758789,33.97062683,12.92544556,-77.52523804
0,38:58.8,0:23,60,0,39:01.7,1540931942,-0.137517916,0.026023345,0.313827702,0.016571045,-0.180709839,-1.202758789,34.16001892,12.88919067,-77.04792786
0,38:58.8,0:23,60,0,39:01.7,1540931942,0.02860235,0.077569094,0.278512854,0.036590576,-0.124740601,-1.28565979,34.07485962,13.37213135,-77.03457642
0,38:58.8,0:23,60,0,39:01.7,1540931942,0.155851915,-0.076009281,0.240812613,0.064376831,-0.10446167,-1.288391113,34.09347534,13.60133362,-77.10310364
0,38:58.8,0:23,60,0,39:01.7,1540931942,0.155851915,-0.076009281,0.240812613,0.100601196,-0.132049561,-1.218688965,34.0291748,13.30406189,-76.80541992
0,38:58.8,0:23,60,0,39:01.7,1540931942,-0.001072455,-0.103717341,0.513885961,0.138442993,-0.18359375,-1.105667114,34.11810303,13.13070679,-76.96316528
0,38:58.8,0:23,60,0,39:01.7,1540931942,-0.269213096,0.019199794,0.713282424,0.129714966,-0.218002319,-1.049133301,34.11810303,13.13070679,-76.96316528
0,38:58.8,0:23,60,0,39:01.8,1540931942,-0.269213096,0.019199794,0.713282424,0.107131958,-0.182113647,-1.047851563,34.10324097,13.21113586,-77.03903198
0,38:58.8,0:23,60,0,39:01.8,1540931942,-0.527518949,0.023820911,0.71870462,0.098068237,-0.112731934,-1.095108032,34.2988739,13.79403687,-77.00668335
0,38:58.8,0:23,60,0,39:01.8,1540931942,-0.34057516,-0.176762524,0.661656514,0.111083984,-0.060058594,-1.142288208,34.33866882,14.25270081,-76.83132935
0,38:58.8,0:23,60,0,39:01.8,1540931942,-0.063641561,-0.457034396,0.57129173,0.106842041,-0.03074646,-1.127929688,34.14533997,14.67970276,-76.66983032
0,38:58.8,0:23,60,0,39:01.8,1540931942,0.078808796,-0.67989171,0.511014274,0.091461182,-0.04258728,-1.021331787,33.95347595,14.40644836,-76.84655762
0,38:58.8,0:23,60,0,39:01.8,1540931942,-0.020236562,-0.677765176,0.487481784,0.07598877,-0.082138062,-0.857666016,33.39953613,14.5165863,-76.56034851
0,38:58.8,0:23,60,0,39:01.9,1540931942,-0.254130549,-0.438639143,0.485691341,0.054382324,-0.126327515,-0.716445923,33.39953613,14.5165863,-76.56034851
0,38:58.8,0:23,60,0,39:01.9,1540931942,-0.413197699,-0.103792442,0.440095626,0.007736206,-0.131256104,-0.677230835,33.17404175,14.79496765,-76.25001526
0,38:58.8,0:23,60,0,39:01.9,1540931942,-0.437399974,0.096957439,0.335404633,-0.00994873,-0.106582642,-0.715744019,33.24662781,15.40232849,-76.14538574
0,38:58.8,0:23,60,0,39:01.9,1540931942,-0.351862968,0.087873397,0.237924415,0.013565063,-0.089645386,-0.771118164,33.38957214,15.60717773,-76.12998962
0,38:58.8,0:23,60,0,39:01.9,1540931942,-0.23330383,-0.093717704,0.193766541,0.04574585,-0.101882935,-0.816299438,33.4977417,15.66311646,-76.27815247
0,38:58.8,0:23,60,0,39:01.9,1540931942,-0.108365889,-0.26251924,0.18174876,0.052108765,-0.136322021,-0.82649231,33.19114685,15.72442627,-75.9803009
0,38:58.8,0:23,60,0,39:02.0,1540931942,-0.031498538,-0.275129042,0.175289529,0.028549194,-0.154830933,-0.791381836,33.19114685,15.72442627,-75.9803009
0,38:58.8,0:23,60,0,39:02.0,1540931942,-0.029626868,-0.19076862,0.172180555,0.004074097,-0.177154541,-0.772888184,33.08364868,15.66854858,-75.75404358
0,38:58.8,0:23,60,0,39:02.0,1540931942,-0.068324197,-0.051882639,0.155227404,-0.021392822,-0.195114136,-0.792541504,33.07073975,15.74917603,-75.59564209
0,38:58.8,0:23,60,0,39:02.0,1540931942,-0.107831393,0.106582903,0.112597918,-0.038894653,-0.208694458,-0.828033447,33.21626282,15.95428467,-75.26785278
0,38:58.8,0:23,60,0,39:02.0,1540931942,-0.09882831,0.259286163,0.04210724,-0.045135498,-0.210952759,-0.896087646,33.24581909,16.10266113,-75.72906494
0,38:58.8,0:23,60,0,39:02.0,1540931942,-0.068804631,0.406353908,-0.02197028,-0.022872925,-0.207778931,-0.967071533,33.48025513,16.13446045,-75.559021
0,38:58.8,0:23,60,0,39:02.1,1540931942,0.031558725,0.417442511,-0.060531787,0.009155273,-0.215362549,-1.076156616,33.48025513,16.13446045,-75.559021
0,38:58.8,0:23,60,0,39:02.1,1540931942,0.1569273,0.292991396,-0.074636687,0.034698486,-0.217269897,-1.169265747,33.71534729,16.16629028,-75.31085205
0,38:58.8,0:23,60,0,39:02.1,1540931942,0.188240215,0.155232198,-0.051255198,0.034225464,-0.23425293,-1.204101563,33.80493164,15.99302673,-75.39050293
0,38:58.8,0:23,60,0,39:02.1,1540931942,0.098814994,0.175572357,-0.054421164,0.016052246,-0.220458984,-1.19203186,34.16239929,16.00032043,-75.29272461
0,38:58.8,0:23,60,0,39:02.1,1540931942,0.007149789,0.381249087,-0.147310359,-0.008605957,-0.176177979,-1.186981201,34.19584656,16.14909363,-75.28536987
0,38:58.8,0:23,60,0,39:02.1,1540931942,0.013850835,0.509178824,-0.238177415,-0.012069702,-0.13861084,-1.262710571,34.6577301,15.90270996,-75.19136047
0,38:58.8,0:23,60,0,39:02.2,1540931942,0.114104202,0.29731557,-0.241675477,0.010635376,-0.124786377,-1.387451172,34.74861145,15.72956848,-75.11480713
0,38:58.8,0:23,60,0,39:02.2,1540931942,0.112019746,0.087379114,-0.210878949,0.00440979,-0.096954346,-1.414703369,34.74861145,15.72956848,-75.11480713
0,38:58.8,0:23,60,0,39:02.2,1540931942,-0.060367204,0.132495194,-0.260041435,-0.050704956,-0.066970825,-1.337417603,34.76852417,15.95890808,-75.02711487
0,38:58.8,0:23,60,0,39:02.2,1540931942,-0.228591367,0.378969155,-0.363570491,-0.093032837,-0.051116943,-1.292572021,34.89724731,16.24423218,-75.00949097
0,38:58.8,0:23,60,0,39:02.2,1540931942,-0.188587758,0.674340085,-0.482081426,0.005432129,0.063232422,-1.358825684,35.16383362,16.4246521,-74.98828125
0,38:58.8,0:23,60,0,39:02.2,1540931942,0.440633584,0.271048014,-0.677627225,0.077163696,0.091125488,-1.343566895,35.68121338,15.85617065,-75.05937195
0,38:58.8,0:23,60,0,39:02.3,1540931942,0.440633584,0.271048014,-0.677627225,0.077163696,0.091125488,-1.343566895,35.46290588,15.74409485,-74.99734497
0,38:58.8,0:23,60,0,39:02.3,1540931942,0.480671815,0.059552809,-0.62863811,0.066772461,0.013366699,-1.019256592,35.46290588,15.74409485,-74.99734497
0,38:58.8,0:23,60,0,39:02.3,1540931942,0.227449137,0.052094627,-0.590035324,0.066772461,0.013366699,-1.019256592,35.5247345,15.73188782,-74.9944458
0,38:58.8,0:23,60,0,39:02.3,1540931942,-0.106464392,0.084563088,-0.604906948,0.051940918,-0.025939941,-0.913269043,35.3243866,15.84893799,-75.07902527
0,38:58.8,0:23,60,0,39:02.3,1540931942,-0.183294193,0.08979833,-0.647716463,0.068817139,-0.050460815,-0.925888062,35.45571899,16.13453674,-74.74902344
0,38:58.8,0:23,60,0,39:02.3,1540931942,-0.183294193,0.08979833,-0.647716463,0.068817139,-0.050460815,-0.925888062,35.44152832,16.21502686,-74.74679565
0,38:58.8,0:23,60,0,39:02.4,1540931942,0.101291734,-0.024467526,-0.615800076,0.108184814,-0.075973511,-0.864120483,35.28570557,16.09077454,-74.60377502
0,38:58.8,0:23,60,0,39:02.4,1540931942,0.366299432,-0.156626629,-0.390075069,0.103668213,-0.11227417,-0.76210022,35.01014709,15.60023499,-75.10539246
0,38:58.8,0:23,60,0,39:02.4,1540931942,0.366299432,-0.156626629,-0.390075069,0.103668213,-0.11227417,-0.76210022,35.01014709,15.60023499,-75.10539246
0,38:58.8,0:23,60,0,39:02.4,1540931942,0.249104898,-0.145161188,-0.271167057,0.026580811,-0.15057373,-0.6746521,35.01651001,15.91012573,-74.93737793
0,38:58.8,0:23,60,0,39:02.4,1540931942,-0.011244132,-0.126583775,-0.234672163,-0.012710571,-0.146240234,-0.688201904,34.77357483,16.26864624,-75.01531982
0,38:58.8,0:23,60,0,39:02.4,1540931942,-0.011244132,-0.126583775,-0.234672163,-0.012710571,-0.146240234,-0.688201904,34.87669373,16.0148468,-75.17527771
0,38:58.8,0:23,60,0,39:02.5,1540931942,0.017674069,0.022529278,-0.266621041,-0.066421509,-0.234909058,-0.81791687,34.6738739,15.8223877,-74.95928955
0,38:58.8,0:23,60,0,39:02.5,1540931942,0.086184687,-0.059780243,-0.133952209,-0.027801514,-0.270278931,-0.916809082,34.79821777,15.79803467,-74.87536621
0,38:58.8,0:23,60,0,39:02.5,1540931942,0.086184687,-0.059780243,-0.133952209,0.073394775,-0.30947876,-0.959823608,34.79821777,15.79803467,-74.87536621
0,38:58.8,0:23,60,0,39:02.5,1540931943,-0.730570334,-0.509078422,0.58102585,0.110595703,-0.342910767,-0.968902588,34.29814148,16.59559631,-75.02900696
0,38:58.8,0:23,60,0,39:02.5,1540931943,-1.000553084,-0.472595246,0.761040626,0.0365448,-0.280914307,-1.0521698,34.27868652,17.06672668,-74.54415894
0,38:58.8,0:23,60,0,39:02.5,1540931943,-1.000553084,-0.472595246,0.761040626,-0.073944092,-0.119338989,-1.251235962,34.103302,17.72286987,-74.52926636
0,38:58.8,0:23,60,0,39:02.6,1540931943,0.017092701,-0.421649241,0.454592011,-0.11227417,0.041564941,-1.41835022,34.2888031,17.68623352,-74.52053833
0,38:58.8,0:23,60,0,39:02.6,1540931943,0.717082755,-0.588816661,0.276454231,-0.049942017,0.100387573,-1.45262146,33.8458252,17.15220642,-74.56451416
0,38:58.8,0:23,60,0,39:02.6,1540931943,1.090142888,-0.622481148,0.225992388,0.011611938,0.044631958,-1.331237793,33.8458252,17.15220642,-74.56451416
0,38:58.8,0:23,60,0,39:02.6,1540931943,1.125452409,-0.553862672,0.292461959,0.027420044,-0.036178589,-1.180130005,33.54386902,16.82281494,-74.82739258
0,38:58.8,0:23,60,0,39:02.6,1540931943,0.935563964,-0.537347345,0.404968531,0.041397095,-0.079269409,-1.072387695,33.2381134,16.18380737,-74.94587708
0,38:58.8,0:23,60,0,39:02.6,1540931943,0.616186767,-0.517113179,0.439337957,0.019210815,-0.101760864,-0.99446106,33.09518433,15.97895813,-74.96128845
0,38:58.8,0:23,60,0,39:02.7,1540931943,0.280293976,-0.481205246,0.38056572,0.010848999,-0.075836182,-0.954376221,33.06828308,15.43968201,-75.2950592
0,38:58.8,0:23,60,0,39:02.7,1540931943,0.007150055,-0.389651626,0.320776155,0.044174194,-0.018386841,-0.938705444,32.75975037,15.50079346,-75.23150635
0,38:58.8,0:23,60,0,39:02.7,1540931943,-0.157781908,-0.218213028,0.310318721,0.071121216,-0.00428772,-0.965393066,32.75975037,15.50079346,-75.23150635
0,38:58.8,0:23,60,0,39:02.7,1540931943,-0.202963235,0.027578897,0.3523964,0.093688965,-0.007095337,-0.999191284,33.01344299,15.76182556,-75.05186462
0,38:58.8,0:23,60,0,39:02.7,1540931943,-0.113233348,0.156365107,0.388942959,0.10597229,-0.00428772,-1.040145874,32.9090271,16.01551819,-75.0480957
0,38:58.8,0:23,60,0,39:02.7,1540931943,0.018385133,0.239591554,0.357958944,0.093521118,0.020568848,-1.048324585,33.14593506,16.35681152,-75.17863464
0,38:58.8,0:23,60,0,39:02.8,1540931943,0.083889042,0.339950915,0.258476828,0.06729126,0.02696228,-1.006759644,33.64974976,15.86886597,-75.16940308
0,38:58.8,0:23,60,0,39:02.8,1540931943,0.01944081,0.413440047,0.157921991,0.046905518,0.0078125,-0.956970215,33.8558197,16.06163025,-74.99487305
0,38:58.8,0:23,60,0,39:02.8,1540931943,-0.131735394,0.463889106,0.076635124,0.03793335,-0.030639648,-0.926040649,34.42590332,15.87117004,-75.04902649
0,38:58.8,0:23,60,0,39:02.8,1540931943,-0.230106706,0.415366311,0.004851214,0.043624878,-0.053543091,-0.932479858,34.42590332,15.87117004,-75.04902649
0,38:58.8,0:23,60,0,39:02.8,1540931943,-0.193088234,0.303840848,-0.054192665,0.067321777,-0.060745239,-0.938980103,34.49913025,16.47859192,-74.86630249
0,38:58.8,0:23,60,0,39:02.8,1540931943,-0.079437302,0.166531458,-0.070452329,0.087905884,-0.119842529,-0.855529785,34.80047607,16.80793762,-74.68153381
0,38:58.8,0:23,60,0,39:02.9,1540931943,-0.02173246,-0.072169269,-0.022571888,0.069244385,-0.149276733,-0.778305054,34.65756226,16.60308838,-74.69692993
0,38:58.8,0:23,60,0,39:02.9,1540931943,-0.02173246,-0.072169269,-0.022571888,0.069244385,-0.149276733,-0.778305054,34.65496826,16.60282898,-75.00932312
0,38:58.8,0:23,60,0,39:02.9,1540931943,-0.107123258,-0.066014437,-0.004339088,0.011581421,-0.180450439,-0.684539795,34.85205078,16.48544312,-75.31520081
0,38:58.8,0:23,60,0,39:02.9,1540931943,-0.141426903,-0.015909724,-0.009623333,-0.011825562,-0.190246582,-0.694259644,34.85205078,16.48544312,-75.31520081
0,38:58.8,0:23,60,0,39:02.9,1540931943,-0.100792125,0.041059819,-0.018129735,-0.013000488,-0.215942383,-0.716995239,34.78564453,16.8883667,-74.75740051
0,38:58.8,0:23,60,0,39:02.9,1540931943,-0.021174528,0.10185739,0.00441419,-0.014526367,-0.254257202,-0.74911499,34.71466064,17.29081726,-74.74627686
0,38:58.8,0:23,60,0,39:03.0,1540931943,0.003332147,0.257044047,0.087056073,-0.009353638,-0.267654419,-0.806350708,35.20803833,17.19299316,-74.87919617
0,38:58.8,0:23,60,0,39:03.0,1540931943,-0.035542548,0.392425575,0.135421209,-0.005783081,-0.251083374,-0.865814209,35.62162781,16.87826538,-74.8684082
0,38:58.8,0:23,60,0,39:03.0,1540931943,-0.095699895,0.493644072,0.122710207,-0.005752563,-0.226074219,-0.945281982,35.94941711,17.04640198,-74.9223938
0,38:58.8,0:23,60,0,39:03.0,1540931943,-0.100260558,0.551300178,0.051034689,-0.016677856,-0.203887939,-1.045532227,35.94941711,17.04640198,-74.9223938
0,38:58.8,0:23,60,0,39:03.0,1540931943,0.115352159,0.432414803,-0.219021031,0.000473022,-0.19152832,-1.135650635,36.18762207,17.38781738,-74.89672852
0,38:58.8,0:23,60,0,39:03.0,1540931943,0.195653657,0.219824241,-0.263207934,0.056396484,-0.206008911,-1.194366455,36.6366272,17.2220459,-74.64430237
0,38:58.8,0:23,60,0,39:03.1,1540931943,0.187843138,0.066293536,-0.259111992,0.084075928,-0.226089478,-1.198562622,36.64038086,17.53167725,-74.78866577
0,38:58.8,0:23,60,0,39:03.1,1540931943,0.148027016,-0.020870395,-0.275272852,0.081558228,-0.228225708,-1.20690918,36.81887817,17.18508911,-75.02606201
0,38:58.8,0:23,60,0,39:03.1,1540931943,0.108664696,-0.058327489,-0.280663889,0.098419189,-0.210968018,-1.245529175,36.9864502,16.91931152,-74.87071228
0,38:58.8,0:23,60,0,39:03.1,1540931943,0.077983216,-0.064599766,-0.261388728,0.098983765,-0.204437256,-1.296478271,36.99998474,16.83876038,-74.95103455
0,38:58.8,0:23,60,0,39:03.1,1540931943,0.137746415,-0.332112433,-0.316347052,0.07989502,-0.194519043,-1.382141113,36.99998474,16.83876038,-74.95103455
0,38:58.8,0:23,60,0,39:03.1,1540931943,0.153825516,-0.544983959,-0.406565895,0.067321777,-0.162643433,-1.384353638,36.60498047,17.38270569,-75.03033447
0,38:58.8,0:23,60,0,39:03.2,1540931943,0.017064471,-0.405173861,-0.41921085,0.043914795,-0.144638062,-1.28503418,36.21534729,17.22677612,-74.97926331
0,38:58.8,0:23,60,0,39:03.2,1540931943,-0.197871537,0.058616442,-0.388602874,-0.005828857,-0.157241821,-1.213516235,36.09039307,17.25105286,-75.14126587
0,38:58.8,0:23,60,0,39:03.2,1540931943,-0.256249893,0.552651999,-0.453301975,-0.040084839,-0.106948853,-1.206008911,36.46011353,17.17767334,-75.2800293
0,38:58.8,0:23,60,0,39:03.2,1540931943,-0.023731162,0.689380287,-0.581692705,0.000671387,0.003463745,-1.285491943,36.66812134,17.37062073,-74.87123108
0,38:58.8,0:23,60,0,39:03.2,1540931943,0.291128248,0.638887286,-0.611814921,0.069869995,0.053924561,-1.290756226,36.66812134,17.37062073,-74.87123108
0,38:58.8,0:23,60,0,39:03.2,1540931943,0.446615044,0.481437473,-0.560645211,0.109222412,0.031524658,-1.216949463,36.97924805,17.30975342,-74.62239075
0,38:58.8,0:23,60,0,39:03.3,1540931943,0.369350083,0.245071008,-0.502020779,0.11315918,-0.023162842,-1.106048584,36.96244812,17.38999939,-74.93255615
0,38:58.8,0:23,60,0,39:03.3,1540931943,0.220576317,-0.075077441,-0.417781798,0.130630493,-0.06388855,-0.99559021,37.21958923,16.95097351,-74.8568573
0,38:58.8,0:23,60,0,39:03.3,1540931943,0.10023659,-0.28843233,-0.330205344,0.117904663,-0.095840454,-0.885375977,37.41474915,16.83338928,-75.39701843
0,38:58.8,0:23,60,0,39:03.3,1540931943,0.024175111,-0.29115701,-0.277718167,0.076553345,-0.108673096,-0.777175903,37.05856323,16.82621765,-75.33862305
0,38:58.8,0:23,60,0,39:03.3,1540931943,-0.015063904,-0.194692788,-0.233684396,0.044555664,-0.116104126,-0.705612183,36.8601532,16.94346619,-75.18891907
0,38:58.8,0:23,60,0,39:03.3,1540931943,-0.070953536,-0.067912206,-0.157483368,0.038406372,-0.131851196,-0.656402588,36.8601532,16.94346619,-75.18891907
0,38:58.8,0:23,60,0,39:03.4,1540931943,-0.138348555,-0.045855906,-0.101755124,0.022094727,-0.141860962,-0.652984619,36.81187439,16.87512207,-75.27215576
0,38:58.8,0:23,60,0,39:03.4,1540931943,-0.198800182,-0.083114861,-0.106069978,-0.002593994,-0.136947632,-0.67678833,36.8722229,17.5632019,-74.93101501
0,38:58.8,0:23,60,0,39:03.4,1540931943,-0.244019592,-0.076092638,-0.130680249,-0.021316528,-0.133346558,-0.697875977,36.97338867,17.30917358,-75.32527161
0,38:58.8,0:23,60,0,39:03.4,1540931943,-0.24285073,0.039731168,-0.15623834,-0.03894043,-0.135635376,-0.73638916,37.02102661,17.37747192,-75.32012939
0,38:58.8,0:23,60,0,39:03.4,1540931943,-0.153275041,0.138477985,-0.180767918,-0.045578003,-0.140258789,-0.797424316,37.08534241,17.67474365,-75.61779785
0,38:58.8,0:23,60,0,39:03.4,1540931943,-0.022811839,0.111219999,-0.169053471,-0.03477478,-0.163925171,-0.872833252,37.08534241,17.67474365,-75.61779785
0,38:58.8,0:23,60,0,39:03.5,1540931943,0.077813306,0.051791559,-0.155229801,-0.009048462,-0.174804688,-0.917373657,36.84938049,18.3432312,-75.44961548
0,38:58.8,0:23,60,0,39:03.5,1540931943,0.106748818,0.104439857,-0.136967174,0.007675171,-0.182891846,-0.933547974,37.05105591,18.2263031,-75.20883179
0,38:58.8,0:23,60,0,39:03.5,1540931943,0.125453263,0.197077383,-0.086526903,0.036453247,-0.1953125,-0.955856323,37.39956665,17.92344666,-75.59144592
0,38:58.8,0:23,60,0,39:03.5,1540931944,0.152905394,0.229838259,0.039868587,0.070739746,-0.222518921,-1.003036499,37.74497986,17.31105042,-75.7515564
0,38:58.8,0:23,60,0,39:03.5,1540931944,0.13590404,0.248900633,0.182320807,0.083343506,-0.237167358,-1.040466309,38.02706909,17.41110229,-75.5763855
0,38:58.8,0:23,60,0,39:03.5,1540931944,0.076291842,0.202745122,0.236892174,0.083068848,-0.211807251,-1.091156006,38.02706909,17.41110229,-75.5763855
0,38:58.8,0:23,60,0,39:03.6,1540931944,-0.032723059,0.05127171,0.239944156,0.104522705,-0.171691895,-1.157577515,38.08235168,17.78938293,-75.24707031
0,38:58.8,0:23,60,0,39:03.6,1540931944,-0.181493896,-0.057808705,0.285892474,0.140380859,-0.155990601,-1.212814331,38.16279602,18.00639343,-75.31263733
0,38:58.8,0:23,60,0,39:03.6,1540931944,-0.24046081,-0.141908137,0.360763253,0.1612854,-0.160354614,-1.285293579,38.54606628,17.85243225,-75.53170776
0,38:58.8,0:23,60,0,39:03.6,1540931944,-0.147072272,-0.162740448,0.477439003,0.18637085,-0.152313232,-1.3568573,38.81983948,17.64239502,-75.75881958
0,38:58.8,0:23,60,0,39:03.6,1540931944,0.095366467,-0.140725959,0.611265511,0.225646973,-0.125778198,-1.418502808,38.75360107,17.34492493,-75.69543457
0,38:58.8,0:23,60,0,39:03.6,1540931944,0.320908781,-0.015723569,0.727018477,0.239196777,-0.073043823,-1.409439087,38.75360107,17.34492493,-75.69543457
0,38:58.8,0:23,60,0,39:03.7,1540931944,0.387875564,0.254134544,0.702705414,0.171051025,-0.042541504,-1.323822021,38.9082489,17.15977478,-75.38168335
0,38:58.8,0:23,60,0,39:03.7,1540931944,0.330199751,0.600012857,0.630327353,0.106689453,-0.091049194,-1.254486084,39.28303528,17.39614868,-75.50860596
0,38:58.8,0:23,60,0,39:03.7,1540931944,0.25940707,0.690538762,0.612251414,0.118423462,-0.121734619,-1.254440308,40.10107422,17.15690613,-75.47302246
0,38:58.8,0:23,60,0,39:03.7,1540931944,0.226643531,0.461577749,0.605551699,0.162338257,-0.096954346,-1.275543213,40.72793579,16.64450073,-75.53605652
0,38:58.8,0:23,60,0,39:03.7,1540931944,0.206455172,0.102908539,0.547287593,0.16468811,-0.065841675,-1.239868164,40.98751831,16.51495361,-75.76092529
0,38:58.8,0:23,60,0,39:03.7,1540931944,0.173467661,-0.282476703,0.438663112,0.145629883,-0.045776367,-1.133956909,40.86138916,16.22988892,-75.46617126
0,38:58.8,0:23,60,0,39:03.8,1540931944,0.161588631,-0.674404267,0.292545316,0.098587036,-0.069473267,-0.864379883,40.86138916,16.22988892,-75.46617126
0,38:58.8,0:23,60,0,39:03.8,1540931944,0.172165908,-0.922714744,0.15195358,0.098587036,-0.069473267,-0.864379883,40.27142334,16.19099426,-75.49972534
0,38:58.8,0:23,60,0,39:03.8,1540931944,0.16192845,-0.907186917,0.080227462,0.078948975,-0.115783691,-0.718566895,39.59368896,16.63482666,-75.83229065
0,38:58.8,0:23,60,0,39:03.8,1540931944,0.120055568,-0.659040757,0.066622437,0.005813599,-0.196105957,-0.560272217,39.42515564,15.89083862,-76.02529907
0,38:58.8,0:23,60,0,39:03.8,1540931944,0.059223909,-0.297173624,0.060658288,0.005813599,-0.196105957,-0.560272217,39.48765564,15.87869263,-75.94429016
0,38:58.8,0:23,60,0,39:03.8,1540931944,-0.008658469,0.001809352,0.109232215,0.016815186,-0.216018677,-0.538833618,39.48699951,15.87863159,-76.02238464
0,38:58.8,0:23,60,0,39:03.9,1540931944,-0.071624386,0.069912506,0.269960645,0.063552856,-0.227935791,-0.627105713,39.48699951,15.87863159,-76.02238464
0,38:58.8,0:23,60,0,39:03.9,1540931944,-0.071624386,0.069912506,0.269960645,0.063552856,-0.227935791,-0.627105713,39.56217957,16.48625183,-75.60536194
0,38:58.8,0:23,60,0,39:03.9,1540931944,-0.128368359,-0.011877965,0.303070129,0.004470825,-0.213409424,-0.684844971,39.86877441,16.42494202,-75.9032135
0,38:58.8,0:23,60,0,39:03.9,1540931944,-0.302501011,-0.162276525,0.19369863,-0.009399414,-0.207992554,-0.723236084,39.79403687,16.51776123,-75.74768066
0,38:58.8,0:23,60,0,39:03.9,1540931944,-0.302501011,-0.162276525,0.19369863,-0.009399414,-0.207992554,-0.723236084,39.99945068,16.71046448,-75.65129089
0,38:58.8,0:23,60,0,39:03.9,1540931944,-0.328198385,-0.223326031,0.104747985,-0.026245117,-0.188018799,-0.817550659,40.16375732,16.44438171,-75.88644409
0,38:58.8,0:23,60,0,39:04.0,1540931944,-0.298404803,-0.111747837,-0.00970376,-0.026245117,-0.188018799,-0.817550659,40.16375732,16.44438171,-75.88644409
0,38:58.8,0:23,60,0,39:04.0,1540931944,-0.222384337,0.094525441,-0.113341207,-0.019943237,-0.177261353,-0.891159058,40.1764679,17.06413269,-75.5504303
0,38:58.8,0:23,60,0,39:04.0,1540931944,0.054050452,-0.008524779,-0.161723653,0.047576904,-0.258087158,-1.114181519,40.18283081,17.37402344,-75.38243103
0,38:58.8,0:23,60,0,39:04.0,1540931944,0.054050452,-0.008524779,-0.161723653,0.047576904,-0.258087158,-1.114181519,40.30584717,17.34953308,-75.45471191
0,38:58.8,0:23,60,0,39:04.0,1540931944,0.176275964,-0.150981793,-0.263660671,0.005981445,-0.265396118,-1.171478271,40.44960022,16.85406494,-75.85565186
0,38:58.8,0:23,60,0,39:04.0,1540931944,0.159102304,-0.123962958,-0.487433314,0.008148193,-0.286117554,-1.169448853,40.31108093,16.95892334,-75.93733215
0,38:58.8,0:23,60,0,39:04.1,1540931944,0.159102304,-0.123962958,-0.487433314,0.008148193,-0.286117554,-1.169448853,40.31108093,16.95892334,-75.93733215
0,38:58.8,0:23,60,0,39:04.1,1540931944,0.026992469,0.08036062,-0.415401731,0.063491821,-0.325698853,-1.305114746,40.28593445,17.120224,-75.54238892
0,38:58.8,0:23,60,0,39:04.1,1540931944,0.091241497,0.187814909,-0.392796553,0.046157837,-0.265640259,-1.434005737,40.19247437,17.29309082,-75.93135071
0,38:58.8,0:23,60,0,39:04.1,1540931944,0.374551503,-0.095617337,-0.519576071,0.029373169,-0.193954468,-1.518615723,40.56790161,17.52952576,-75.98016357
0,38:58.8,0:23,60,0,39:04.1,1540931944,0.51519597,-0.288150834,-0.585169995,0.030410767,-0.1534729,-1.442077637,40.50558472,16.84127808,-76.55560303
0,38:58.8,0:23,60,0,39:04.1,1540931944,0.415092272,-0.26901256,-0.532650061,0.026916504,-0.203033447,-1.285720825,40.16294861,16.7535553,-76.57749939
0,38:58.8,0:23,60,0,39:04.2,1540931944,0.415092272,-0.26901256,-0.532650061,0.022766113,-0.235275269,-1.150238037,40.00454712,16.6290741,-76.74688721
0,38:58.8,0:23,60,0,39:04.2,1540931944,-0.073374882,0.067138824,-0.384338886,0.010253906,-0.160003662,-1.104629517,40.00454712,16.6290741,-76.74688721
0,38:58.8,0:23,60,0,39:04.2,1540931944,-0.076181854,-0.024441161,-0.466907533,0.009979248,-0.045196533,-1.113967896,39.86584473,17.43431091,-76.33415222
0,38:58.8,0:23,60,0,39:04.2,1540931944,-0.076181854,-0.024441161,-0.466907533,0.019226074,-0.000823975,-1.053131104,39.74217224,17.45874023,-76.33996582
0,38:58.8,0:23,60,0,39:04.2,1540931944,-0.047549676,0.094398142,-0.50103541,0.03163147,-0.027740479,-0.982009888,39.69128418,17.39013672,-76.7355957
0,38:58.8,0:23,60,0,39:04.2,1540931944,-0.084446175,0.105392736,-0.457107633,0.027954102,-0.056030273,-0.940368652,40.07647705,17.2363739,-76.72035217
0,38:58.8,0:23,60,0,39:04.3,1540931944,-0.114614198,0.038618233,-0.456111877,0.013015747,-0.066879272,-0.906265259,39.9032135,17.19232178,-76.96557617
0,38:58.8,0:23,60,0,39:04.3,1540931944,-0.134920002,0.003244263,-0.487205614,0.001220703,-0.073394775,-0.853713989,39.59516907,17.9539032,-76.32952881
0,38:58.8,0:23,60,0,39:04.3,1540931944,-0.144998469,0.052009139,-0.486072173,0.007705688,-0.093948364,-0.79258728,39.59516907,17.9539032,-76.32952881
0,38:58.8,0:23,60,0,39:04.3,1540931944,-0.14809972,0.183725358,-0.418444659,0.019393921,-0.136245728,-0.758636475,39.35159302,18.31236267,-76.48554993
0,38:58.8,0:23,60,0,39:04.3,1540931944,-0.088134387,0.292165283,-0.361569658,0.014801025,-0.147537231,-0.768554688,39.50869751,18.4367218,-76.47236633
0,38:58.8,0:23,60,0,39:04.3,1540931944,0.013234313,0.204535033,-0.329576305,0.026016235,-0.13117981,-0.793273926,40.09036255,18.16551208,-76.84111023
0,38:58.8,0:23,60,0,39:04.4,1540931944,0.08023119,0.04913186,-0.307296033,0.029663086,-0.128005981,-0.786712646,40.05691528,18.01675415,-76.84846497
0,38:58.8,0:23,60,0,39:04.4,1540931944,0.023251527,-0.053275472,-0.257078136,0.030426025,-0.14251709,-0.738861084,39.67935181,18.48051453,-76.539505
0,38:58.8,0:23,60,0,39:04.4,1540931944,-0.10776215,-0.07695923,-0.241012883,-0.001953125,-0.159973145,-0.710800171,39.67935181,18.48051453,-76.539505
0,38:58.8,0:23,60,0,39:04.4,1540931944,-0.235719051,-0.117870977,-0.251741161,-0.028457642,-0.178344727,-0.729187012,39.27017212,19.10494995,-76.61659241
0,38:58.8,0:23,60,0,39:04.4,1540931944,-0.261352509,-0.163924223,-0.304264024,-0.042114258,-0.182769775,-0.781311035,38.96603394,19.47575378,-76.61933899
0,38:58.8,0:23,60,0,39:04.4,1540931944,-0.204965666,-0.121038275,-0.344917444,-0.040969849,-0.174072266,-0.822250366,39.25271606,19.18511963,-77.00483704
0,38:58.8,0:23,60,0,39:04.5,1540931944,-0.153082761,0.016811204,-0.320130073,-0.021575928,-0.191162109,-0.867294312,39.27391052,19.4145813,-76.76095581
0,38:58.8,0:23,60,0,39:04.5,1540931944,-0.119084047,0.06903819,-0.208704211,0.005249023,-0.230194092,-0.941513062,39.10505676,19.68023682,-77.07249451
0,38:58.8,0:23,60,0,39:04.5,1540931944,-0.10490884,0.041279263,-0.063104667,0.032577515,-0.264923096,-1.021652222,39.10505676,19.68023682,-77.07249451
0,38:58.8,0:23,60,0,39:04.5,1540931945,-0.079449552,0.078518511,0.030100112,0.03817749,-0.256713867,-1.070602417,38.83763123,20.20013428,-76.67739868
0,38:58.8,0:23,60,0,39:04.5,1540931945,-0.044210072,0.249886269,0.097767307,0.017028809,-0.224212646,-1.10798645,38.9805603,20.40496826,-76.66200256
0,38:58.8,0:23,60,0,39:04.5,1540931945,-0.021630727,0.410730813,0.122590099,0.001205444,-0.19342041,-1.17527771,39.49662781,19.83634949,-76.88925171
0,38:58.8,0:23,60,0,39:04.6,1540931945,-0.05137797,0.281163232,0.137429499,0.021713257,-0.194000244,-1.281906128,39.9480896,19.98008728,-76.93740845
0,38:58.8,0:23,60,0,39:04.6,1540931945,-0.186373339,-0.038988945,0.189539305,0.075317383,-0.197555542,-1.35319519,39.83598328,19.92375183,-77.25782776
0,38:58.8,0:23,60,0,39:04.6,1540931945,-0.310488364,-0.441319348,0.20941927,0.126495361,-0.176940918,-1.369338989,39.83598328,19.92375183,-77.25782776
0,38:58.8,0:23,60,0,39:04.6,1540931945,-0.34412329,-0.656125395,0.181319991,0.115509033,-0.15512085,-1.333068848,39.03895569,21.09283447,-76.55516052
0,38:58.8,0:23,60,0,39:04.6,1540931945,-0.27773095,-0.446819042,0.153719789,0.087387085,-0.141738892,-1.235580444,38.60350037,21.17805481,-76.88787842
0,38:58.8,0:23,60,0,39:04.6,1540931945,-0.067849888,-0.107139237,0.177647226,0.086044312,-0.145782471,-1.208175659,38.54542542,21.49990845,-77.03518677
0,38:58.8,0:23,60,0,39:04.7,1540931945,0.212618526,0.123577865,0.232478251,0.105758667,-0.143325806,-1.214706421,38.73371887,20.7631073,-77.20849609
0,38:58.8,0:23,60,0,39:04.7,1540931945,0.491051751,0.013933126,0.205504423,0.121932983,-0.089508057,-1.162094116,38.71775818,20.14305115,-77.9349823
0,38:58.8,0:23,60,0,39:04.7,1540931945,0.614691668,-0.182930671,0.18167286,0.121932983,-0.089508057,-1.162094116,38.71775818,20.14305115,-77.9349823
0,38:58.8,0:23,60,0,39:04.7,1540931945,0.50973862,-0.233973349,0.214831879,0.121780396,-0.111312866,-1.031234741,38.62573242,20.00679016,-77.55476379
0,38:58.8,0:23,60,0,39:04.7,1540931945,0.285456248,-0.191963847,0.255630441,0.104187012,-0.151016235,-0.873321533,37.92562866,19.91177368,-77.67443848
0,38:58.8,0:23,60,0,39:04.7,1540931945,0.063527844,-0.122962409,0.302886903,0.104187012,-0.151016235,-0.873321533,38.00605774,20.12876892,-77.74005127
0,38:58.8,0:23,60,0,39:04.8,1540931945,-0.073350114,-0.095801361,0.330795766,0.101486206,-0.14251709,-0.858413696,37.95077515,19.75045776,-78.06938171
0,38:58.8,0:23,60,0,39:04.8,1540931945,-0.025732261,-0.183941607,0.348880228,0.097900391,-0.120727539,-0.836685181,38.21165466,19.62106323,-78.13806152
0,38:58.8,0:23,60,0,39:04.8,1540931945,-0.025732261,-0.183941607,0.348880228,0.097900391,-0.120727539,-0.836685181,38.10217285,19.56500244,-78.14610291
0,38:58.8,0:23,60,0,39:04.8,1540931945,-0.019294868,-0.053291451,0.389732587,0.074371338,-0.141220093,-0.710372925,38.10217285,19.56500244,-78.14610291
0,38:58.8,0:23,60,0,39:04.8,1540931945,-0.135163681,0.188843954,0.433964496,0.052810669,-0.147842407,-0.733764648,37.85011292,20.313797,-78.21000671
0,38:58.8,0:23,60,0,39:04.8,1540931945,-0.135163681,0.188843954,0.433964496,0.052810669,-0.147842407,-0.733764648,38.22370911,20.24079895,-77.88015747
0,38:58.8,0:23,60,0,39:04.9,1540931945,-0.11058883,0.103323726,0.393160341,0.0181427,-0.119644165,-0.771102905,38.35588074,19.82606506,-77.96647644
0,38:58.8,0:23,60,0,39:04.9,1540931945,-0.141690024,-0.116062158,0.151953314,0.001220703,-0.139801025,-0.745071411,38.35263062,19.82574463,-78.35694885
0,38:58.8,0:23,60,0,39:04.9,1540931945,-0.141690024,-0.116062158,0.151953314,0.001220703,-0.139801025,-0.745071411,38.27528381,19.91830444,-78.5138092
0,38:58.8,0:23,60,0,39:04.9,1540931945,-0.144882621,0.174465281,-0.004033357,0.001358032,-0.212387085,-0.765930176,38.27528381,19.91830444,-78.5138092
0,38:58.8,0:23,60,0,39:04.9,1540931945,0.005960155,0.605901106,-0.063505739,-0.005355835,-0.223266602,-0.823379517,38.21392822,20.63098145,-77.94422913
0,38:58.8,0:23,60,0,39:04.9,1540931945,0.005960155,0.605901106,-0.063505739,-0.007278442,-0.246871948,-0.94543457,38.24931335,20.77992249,-77.70257568
0,38:58.8,0:23,60,0,39:05.0,1540931945,0.573405747,0.94240163,-0.102849151,0.029083252,-0.263458252,-1.091156006,39.09382629,20.3795166,-77.90571594
0,38:58.8,0:23,60,0,39:05.0,1540931945,0.622249986,0.637116017,-0.152497131,0.089874268,-0.268844604,-1.164382935,39.75559998,19.31561279,-78.29962158
0,38:58.8,0:23,60,0,39:05.0,1540931945,0.622249986,0.637116017,-0.152497131,0.154190063,-0.274414063,-1.169235229,39.82215881,18.60345459,-78.24447632
0,38:58.8,0:23,60,0,39:05.0,1540931945,0.015441807,-0.215309117,-0.290472844,0.196807861,-0.293731689,-1.182693481,39.36598206,19.15968323,-78.24858093
0,38:58.8,0:23,60,0,39:05.0,1540931945,-0.237431996,-0.29206648,-0.233750975,0.193847656,-0.323776245,-1.225387573,39.36598206,19.15968323,-78.24858093
0,38:58.8,0:23,60,0,39:05.0,1540931945,-0.250580023,-0.217591979,-0.162979067,0.172210693,-0.317245483,-1.323959351,38.87831116,19.56730652,-78.02574158
0,38:58.8,0:23,60,0,39:05.1,1540931945,-0.069674153,-0.149135157,-0.135095771,0.167633057,-0.256530762,-1.423858643,38.54138184,19.78942871,-77.95774841
0,38:58.8,0:23,60,0,39:05.1,1540931945,0.210365225,-0.312845794,-0.169632709,0.159759521,-0.201248169,-1.493453979,38.34187317,19.20614624,-78.45866394
0,38:58.8,0:23,60,0,39:05.1,1540931945,0.339391119,-0.497863585,-0.193450956,0.148681641,-0.182159424,-1.433959961,38.08947754,18.94522095,-78.48210144
0,38:58.8,0:23,60,0,39:05.1,1540931945,0.220455942,-0.577966943,-0.162466142,0.100112915,-0.21913147,-1.294754028,37.51760864,18.82626343,-78.04930115
0,38:58.8,0:23,60,0,39:05.1,1540931945,-0.097520165,-0.500785072,-0.037003558,0.058807373,-0.241592407,-1.172027588,37.51760864,18.82626343,-78.04930115
0,38:58.8,0:23,60,0,39:05.1,1540931945,-0.395839215,-0.48080444,0.010210826,0.023880005,-0.18409729,-1.113723755,36.53898621,19.64120483,-77.99414063
0,38:58.8,0:23,60,0,39:05.2,1540931945,-0.505774238,-0.638407384,-0.074555195,-0.016036987,-0.064941406,-1.120620728,36.05064392,20.04876709,-77.84939575
0,38:58.8,0:23,60,0,39:05.2,1540931945,-0.518107604,-0.609017004,-0.091649759,-0.03213501,0.012573242,-1.05619812,35.55810547,19.4462738,-78.1328125
0,38:58.8,0:23,60,0,39:05.2,1540931945,-0.459494091,-0.310230836,-0.027043602,-0.03805542,0.027572632,-0.972488403,35.55661011,20.14651489,-77.79457092
0,38:58.8,0:23,60,0,39:05.2,1540931945,-0.386437457,0.076903038,0.089069423,-0.048294067,0.02696228,-0.927474976,35.41940308,20.25151062,-77.72007751
0,38:58.8,0:23,60,0,39:05.2,1540931945,-0.276224134,0.348504989,0.065818961,-0.085708618,0.03427124,-0.930267334,35.41940308,20.25151062,-77.72007751
0,38:58.8,0:23,60,0,39:05.2,1540931945,-0.121210315,0.4393052,-0.021917017,-0.094406128,0.043533325,-0.935745239,35.51383972,21.08839417,-77.29347229
0,38:58.8,0:23,60,0,39:05.3,1540931945,0.040719467,0.372119771,-0.108778679,-0.061553955,0.02003479,-0.898208618,35.48103333,20.93969727,-77.2227478
0,38:58.8,0:23,60,0,39:05.3,1540931945,0.164083214,0.242558315,-0.192495414,-0.033096313,-0.009384155,-0.829238892,35.84701538,20.55667114,-77.21710205
0,38:58.8,0:23,60,0,39:05.3,1540931945,0.183216961,0.145094076,-0.208683172,-0.006469727,-0.049331665,-0.749084473,35.80654907,20.09793091,-77.47055054
0,38:58.8,0:23,60,0,39:05.3,1540931945,0.136471826,0.114081832,-0.185151215,-0.004165649,-0.089309692,-0.681869507,35.89237976,19.61505127,-77.40579224
0,38:58.8,0:23,60,0,39:05.3,1540931945,0.10163688,0.113278889,-0.171222616,-0.02130127,-0.122451782,-0.65385437,35.89237976,19.61505127,-77.40579224
0,38:58.8,0:23,60,0,39:05.3,1540931945,0.112140387,0.107791445,-0.176586222,-0.045791626,-0.138076782,-0.668411255,35.55331421,20.53735352,-77.07766724
0,38:58.8,0:23,60,0,39:05.4,1540931945,0.134177779,0.093574692,-0.190530268,-0.055114746,-0.159835815,-0.690536499,35.46717834,20.01055908,-77.10195923
0,38:58.8,0:23,60,0,39:05.4,1540931945,0.126118521,0.121962392,-0.237611227,-0.067718506,-0.215927124,-0.72303772,35.37042236,20.57424927,-76.77403259
0,38:58.8,0:23,60,0,39:05.4,1540931945,0.12586552,0.204188556,-0.242864046,-0.060256958,-0.26612854,-0.773086548,35.64698792,19.66409302,-77.18313599
0,38:58.8,0:23,60,0,39:05.4,1540931945,0.184451869,0.191115897,-0.089761046,0.00428772,-0.289154053,-0.845550537,35.73851013,19.49101257,-77.02848816
0,38:58.8,0:23,60,0,39:05.4,1540931945,0.251778712,0.127721211,0.184285155,0.061767578,-0.304718018,-0.920944214,36.15846252,19.48617554,-76.84971619
0,38:58.8,0:23,60,0,39:05.4,1540931945,0.228938377,0.118186562,0.459490363,0.064483643,-0.311218262,-0.966323853,36.15846252,19.48617554,-76.84971619
0,38:58.8,0:23,60,0,39:05.5,1540931945,0.175185932,0.163384667,0.645889002,-0.009246826,-0.218307495,-1.054122925,36.0509491,19.43028259,-76.62347412
0,38:58.8,0:23,60,0,39:05.5,1540931945,0.155738198,0.241155895,0.718808217,-0.009246826,-0.218307495,-1.054122925,36.45605469,19.50587463,-76.52055359
0,38:58.8,0:23,60,0,39:05.5,1540931945,0.16198917,0.233520345,0.719868155,-0.035552979,-0.161804199,-1.136459351,36.88975525,18.72007751,-76.91651917
0,38:58.8,0:23,60,0,39:05.5,1540931946,0.123527798,0.173456475,0.685535748,-0.061203003,-0.108978271,-1.229248047,37.56552124,18.27604675,-76.8182373
0,38:58.8,0:23,60,0,39:05.5,1540931946,0.029564817,0.136926161,0.579497994,-0.061203003,-0.108978271,-1.229248047,37.59457397,18.11512756,-76.74458313
0,38:58.8,0:23,60,0,39:05.5,1540931946,-0.095722532,0.116126074,0.401739448,-0.058639526,-0.067489624,-1.258132935,37.59457397,18.11512756,-76.74458313
0,38:58.8,0:23,60,0,39:05.6,1540931946,-0.084071468,-0.085627553,-0.023644343,-0.000701904,-0.034988403,-1.360427856,37.3669281,19.09367371,-76.17411804
0,38:58.8,0:23,60,0,39:05.6,1540931946,-0.084071468,-0.085627553,-0.023644343,-0.000701904,-0.034988403,-1.360427856,37.47006226,18.83987427,-76.33407593
0,38:58.8,0:23,60,0,39:05.6,1540931946,-0.020517526,-0.09102871,-0.177870399,0.081283569,-0.089355469,-1.295791626,37.22335815,18.88877869,-76.26760864
0,38:58.8,0:23,60,0,39:05.6,1540931946,0.072305889,0.034414433,-0.12419492,0.125640869,-0.140808105,-1.252380371,37.77859497,18.77876282,-76.39762878
0,38:58.8,0:23,60,0,39:05.6,1540931946,0.072305889,0.034414433,-0.12419492,0.125640869,-0.140808105,-1.252380371,37.61201477,18.03495789,-76.35632324
0,38:58.8,0:23,60,0,39:05.6,1540931946,0.033868485,0.015851934,0.011790879,0.134689331,-0.125228882,-1.138793945,37.61201477,18.03495789,-76.35632324
0,38:58.8,0:23,60,0,39:05.7,1540931946,-0.146956957,-0.160650932,-0.045138983,0.10760498,-0.077682495,-1.079269409,37.41783142,19.16227722,-75.77848816
0,38:58.8,0:23,60,0,39:05.7,1540931946,-0.146956957,-0.160650932,-0.045138983,0.10760498,-0.077682495,-1.079269409,37.29350281,19.18664551,-75.8624115
0,38:58.8,0:23,60,0,39:05.7,1540931946,-0.087908018,-0.195225154,-0.196187354,0.110122681,-0.061920166,-0.984176636,37.03767395,19.62579346,-75.78190613
0,38:58.8,0:23,60,0,39:05.7,1540931946,0.011754927,-0.143101499,-0.216493425,0.121704102,-0.075927734,-0.928497314,37.31048584,18.40602112,-76.04667664
0,38:58.8,0:23,60,0,39:05.7,1540931946,0.011754927,-0.143101499,-0.216493425,0.129302979,-0.091308594,-0.857513428,37.35812378,18.47431946,-76.04153442
0,38:58.8,0:23,60,0,39:05.7,1540931946,0.071518392,0.055096808,-0.155224208,0.137695313,-0.113433838,-0.786560059,37.30769348,19.1061554,-75.86463928
0,38:58.8,0:23,60,0,39:05.8,1540931946,-0.005612346,0.167986076,-0.070468308,0.139770508,-0.144363403,-0.738800049,37.30769348,19.1061554,-75.86463928
0,38:58.8,0:23,60,0,39:05.8,1540931946,-0.005612346,0.167986076,-0.070468308,0.135772705,-0.170562744,-0.732803345,37.14533997,19.37243652,-75.39518738
0,38:58.8,0:23,60,0,39:05.8,1540931946,-0.215755729,0.052722334,0.046164033,0.110656738,-0.163452148,-0.783477783,37.28108215,19.9677124,-75.13148499
0,38:58.8,0:23,60,0,39:05.8,1540931946,-0.175067422,-0.225410487,-0.012015384,0.091186523,-0.124252319,-0.832885742,37.62011719,19.04541016,-75.45959473
0,38:58.8,0:23,60,0,39:05.8,1540931946,-0.089592467,-0.447793759,-0.054073888,0.083740234,-0.122528076,-0.854309082,37.63873291,19.27462769,-75.52812195
0,38:58.8,0:23,60,0,39:05.8,1540931946,-0.040414535,-0.487208011,-0.053063485,0.081954956,-0.157562256,-0.84274292,37.22203064,19.27981567,-75.31640625
0,38:58.8,0:23,60,0,39:05.9,1540931946,0.006374542,-0.448676331,-0.063735836,0.070205688,-0.189834595,-0.824615479,37.22203064,19.27981567,-75.31640625
0,38:58.8,0:23,60,0,39:05.9,1540931946,0.075471056,-0.38986388,-0.060467339,0.053894043,-0.206695557,-0.82170105,36.89585876,20.12149048,-75.14671326
0,38:58.8,0:23,60,0,39:05.9,1540931946,0.104736533,-0.299422397,-0.027166107,0.047088623,-0.210678101,-0.812408447,36.5899353,20.18286133,-74.77076721
0,38:58.8,0:23,60,0,39:05.9,1540931946,0.079536371,-0.181237966,-0.038793735,0.024978638,-0.224319458,-0.827468872,36.6661377,19.38977051,-75.26451111
0,38:58.8,0:23,60,0,39:05.9,1540931946,0.040762344,-0.064812286,-0.118955416,-0.0105896,-0.235733032,-0.85774231,37.14729309,19.37263489,-75.16091919
0,38:58.8,0:23,60,0,39:05.9,1540931946,0.027967453,0.004974785,-0.229165012,-0.020889282,-0.236190796,-0.908279419,37.06555176,19.15551758,-75.25151062
0,38:58.8,0:23,60,0,39:06.0,1540931946,0.063737701,-0.025272333,-0.32451763,0.002288818,-0.234481812,-0.968505859,37.06555176,19.15551758,-75.25151062
0,38:58.8,0:23,60,0,39:06.0,1540931946,0.11229272,-0.028828985,-0.36308473,0.027297974,-0.245285034,-1.001693726,36.7605896,20.22665405,-74.83790588
0,38:58.8,0:23,60,0,39:06.0,1540931946,0.09619258,0.058807391,-0.330846899,0.043807983,-0.270629883,-1.009628296,36.53788757,19.80488586,-74.70960999
0,38:58.8,0:23,60,0,39:06.0,1540931946,-0.000992826,0.265156036,-0.308080866,0.03503418,-0.27041626,-1.017776489,36.72715759,20.0778656,-74.84527588
0,38:58.8,0:23,60,0,39:06.0,1540931946,-0.145748415,0.45579283,-0.299243965,0.028778076,-0.256515503,-1.065551758,37.59628296,19.2068634,-74.90847778
0,38:58.8,0:23,60,0,39:06.0,1540931946,-0.22258514,0.571330878,-0.336563108,0.032531738,-0.227752686,-1.15852356,37.78814697,19.48010254,-74.73176575
0,38:58.8,0:23,60,0,39:06.1,1540931946,-0.166852102,0.43045232,-0.403143733,0.064407349,-0.185119629,-1.292770386,37.92829895,20.38508606,-74.53430176
0,38:58.8,0:23,60,0,39:06.1,1540931946,-0.123219404,0.238828558,-0.463358871,0.097488403,-0.143554688,-1.361404419,37.92829895,20.38508606,-74.53430176
0,38:58.8,0:23,60,0,39:06.1,1540931946,-0.156006645,0.116951388,-0.470997349,0.11630249,-0.132781982,-1.349365234,37.57717896,20.68766785,-74.46409607
0,38:58.8,0:23,60,0,39:06.1,1540931946,-0.235358992,0.122534172,-0.324263299,0.136642456,-0.166793823,-1.333816528,37.91259766,21.16584778,-74.19384766
0,38:58.8,0:23,60,0,39:06.1,1540931946,-0.358609022,0.401945577,-0.117212644,0.137588501,-0.145294189,-1.284744263,38.42623901,20.28771973,-74.12054443
0,38:58.8,0:23,60,0,39:06.1,1540931946,-0.320602251,0.427183822,-0.028309136,0.106536865,-0.066223145,-1.341903687,38.91618347,20.88998413,-74.14953613
0,38:58.8,0:23,60,0,39:06.2,1540931946,-0.108553908,0.19304802,-0.140018624,0.059967041,0.024139404,-1.37147522,39.01976013,21.33662415,-73.73696899
0,38:58.8,0:23,60,0,39:06.2,1540931946,0.144622697,-0.071232102,-0.385632916,0.014816284,0.087753296,-1.298583984,39.01976013,21.33662415,-73.73696899
0,38:58.8,0:23,60,0,39:06.2,1540931946,0.297598664,-0.10123128,-0.553832046,0.009811401,0.065689087,-1.122955322,38.29698181,21.71240234,-73.76229858
0,38:58.8,0:23,60,0,39:06.2,1540931946,0.359968299,0.027911792,-0.540837417,0.041885376,-0.019561768,-0.952255249,38.08308411,21.91001892,-73.76657104
0,38:58.8,0:23,60,0,39:06.2,1540931946,0.338417467,0.116343654,-0.423999214,0.072387695,-0.103286743,-0.84967041,38.34677124,21.08050537,-74.01730347
0,38:58.8,0:23,60,0,39:06.2,1540931946,0.223474636,0.146114866,-0.290077099,0.065170288,-0.16293335,-0.724441528,39.10299683,20.85348511,-73.98461914
0,38:58.8,0:23,60,0,39:06.3,1540931946,0.022540995,0.106561065,-0.194770819,0.065170288,-0.16293335,-0.724441528,38.96138,20.64875793,-73.84384155
0,38:58.8,0:23,60,0,39:06.3,1540931946,-0.192228565,0.031828237,-0.194811299,0.030014038,-0.146865845,-0.708557129,38.96138,20.64875793,-73.84384155
0,38:58.8,0:23,60,0,39:06.3,1540931946,-0.31116534,-0.069538864,-0.255946825,0.001708984,-0.104370117,-0.743804932,38.5017395,21.90504456,-73.74398804
0,38:58.8,0:23,60,0,39:06.3,1540931946,-0.309758924,-0.15691425,-0.318164926,0.001708984,-0.104370117,-0.743804932,38.2323761,22.42475891,-73.58317566
0,38:58.8,0:23,60,0,39:06.3,1540931946,-0.24526675,-0.261153571,-0.371852123,0.01701355,-0.107254028,-0.760238647,38.23301697,22.42481995,-73.50509644
0,38:58.8,0:23,60,0,39:06.3,1540931946,-0.161567059,-0.324771696,-0.351604376,-0.000656128,-0.139450073,-0.774475098,38.35098267,22.09057617,-73.58917236
0,38:58.8,0:23,60,0,39:06.4,1540931946,-0.161567059,-0.324771696,-0.351604376,-0.000656128,-0.139450073,-0.774475098,38.09793091,21.82958984,-73.69070435
0,38:58.8,0:23,60,0,39:06.4,1540931946,-0.168643078,-0.285890077,-0.320499719,-0.011657715,-0.181549072,-0.803817749,37.59260559,23.01779175,-73.36172485
0,38:58.8,0:23,60,0,39:06.4,1540931946,-0.170932864,-0.174813622,-0.232551487,-0.020263672,-0.190567017,-0.848480225,37.59260559,23.01779175,-73.36172485
0,38:58.8,0:23,60,0,39:06.4,1540931946,-0.170932864,-0.174813622,-0.232551487,-0.020263672,-0.190567017,-0.848480225,37.12956238,22.95481873,-72.9989624
0,38:58.8,0:23,60,0,39:06.4,1540931946,-0.067691696,-0.199342934,-0.296858306,-0.057693481,-0.150543213,-0.973983765,37.12173462,23.34519958,-72.82875061
0,38:58.8,0:23,60,0,39:06.4,1540931946,0.41182191,-0.41350556,-0.635630239,-0.048690796,-0.141921997,-1.049942017,37.28945923,22.37904358,-73.16783142
0,38:58.8,0:23,60,0,39:06.5,1540931946,0.41182191,-0.41350556,-0.635630239,-0.048690796,-0.141921997,-1.049942017,36.91716003,22.45217896,-73.34147644
0,38:58.8,0:23,60,0,39:06.5,1540931946,1.039696492,-0.06505783,-0.291604954,0.11630249,-0.287155151,-1.0962677,36.44320679,22.07885742,-73.69337463
0,38:58.8,0:23,60,0,39:06.5,1540931946,1.092217224,0.372399669,0.272195303,0.185455322,-0.405044556,-1.104598999,36.44320679,22.07885742,-73.69337463
0,38:58.8,0:23,60,0,39:06.5,1540931947,1.092217224,0.372399669,0.272195303,0.149902344,-0.40246582,-1.084487915,36.13467407,22.13996887,-73.62985229
0,38:58.8,0:23,60,0,39:06.5,1540931947,0.153103533,0.410908179,0.740435482,0.049942017,-0.299026489,-1.101867676,36.94572449,21.59078979,-73.84033203
0,38:58.8,0:23,60,0,39:06.5,1540931947,-0.359048177,-0.05686275,0.475478917,-0.042648315,-0.196334839,-1.23588562,37.78779602,20.88087463,-73.74290466
0,38:58.8,0:23,60,0,39:06.6,1540931947,-0.359048177,-0.05686275,0.475478917,-0.0418396,-0.100601196,-1.394577026,38.2514801,20.94392395,-74.02757263
0,38:58.8,0:23,60,0,39:06.6,1540931947,-0.45682081,-0.64207722,0.184577037,0.0050354,-0.108825684,-1.434768677,37.67292786,21.52470398,-73.88130188
0,38:58.8,0:23,60,0,39:06.6,1540931947,-0.45682081,-0.64207722,0.184577037,0.0050354,-0.108825684,-1.434768677,37.67292786,21.52470398,-73.88130188
0,38:58.8,0:23,60,0,39:06.6,1540931947,-0.045013814,-0.002759568,0.797799439,0.118408203,-0.223678589,-1.357055664,36.91716003,22.45217896,-73.34147644
0,38:58.8,0:23,60,0,39:06.6,1540931947,-0.003195793,0.23065292,1.021887401,0.071548462,-0.20753479,-1.301040649,37.32292175,22.52781677,-73.16047668
0,38:58.8,0:23,60,0,39:06.6,1540931947,-0.003195793,0.23065292,1.021887401,0.008255005,-0.101089478,-1.289352417,37.99871826,22.08380127,-73.06219482
0,38:58.8,0:23,60,0,39:06.7,1540931947,-0.030140326,-0.01545752,0.691764882,-0.039825439,0.000823975,-1.236663818,38.72201538,22.01731873,-73.57171631
0,38:58.8,0:23,60,0,39:06.7,1540931947,0.012673185,-0.128229342,0.389632452,-0.036361694,0.037612915,-1.148071289,38.67123413,21.63945007,-73.35437012
0,38:58.8,0:23,60,0,39:06.7,1540931947,0.012673185,-0.128229342,0.389632452,-0.006500244,0.004699707,-1.059158325,38.41853333,22.38819885,-73.49636841
0,38:58.8,0:23,60,0,39:06.7,1540931947,0.139689457,-0.036320724,0.092015678,0.035140991,-0.057662964,-0.94291687,38.41853333,22.38819885,-73.49636841
0,38:58.8,0:23,60,0,39:06.7,1540931947,0.136395127,0.177728186,0.127618946,0.078765869,-0.107727051,-0.842147827,38.05012512,22.4617157,-73.20143127
0,38:58.8,0:23,60,0,39:06.7,1540931947,0.091554685,0.359521953,0.214593792,0.118103027,-0.135681152,-0.772720337,38.60598755,22.35174561,-73.25334167
0,38:58.8,0:23,60,0,39:06.8,1540931947,0.043400737,0.409502563,0.273564435,0.138000488,-0.147171021,-0.753570557,39.5690918,21.61715698,-73.46247864
0,38:58.8,0:23,60,0,39:06.8,1540931947,0.026176477,0.370764222,0.264953902,0.118423462,-0.133972168,-0.750778198,39.78234863,21.41947937,-73.5362854
0,38:58.8,0:23,60,0,39:06.8,1540931947,0.041913096,0.238896735,0.204819192,0.107315063,-0.104629517,-0.750183105,39.85429382,22.02679443,-73.50976563
0,38:58.8,0:23,60,0,39:06.8,1540931947,0.057548781,-0.009843576,0.159532404,0.121185303,-0.102310181,-0.749740601,39.85429382,22.02679443,-73.50976563
0,38:58.8,0:23,60,0,39:06.8,1540931947,0.034283672,-0.339626809,0.188044473,0.127258301,-0.126937866,-0.726364136,39.36221313,22.12472534,-73.22067261
0,38:58.8,0:23,60,0,39:06.8,1540931947,-0.035466115,-0.355194317,0.191254647,0.115707397,-0.147247314,-0.697753906,39.36985779,22.43473816,-72.89645386
0,38:58.8,0:23,60,0,39:06.9,1540931947,-0.151203368,-0.223140142,0.174311617,0.040222168,-0.210083008,-0.62588501,39.75785828,21.58085632,-73.06326294
0,38:58.8,0:23,60,0,39:06.9,1540931947,-0.27806784,-0.041237984,0.160645339,0.040222168,-0.210083008,-0.62588501,40.12887573,21.50758362,-73.04580688
0,38:58.8,0:23,60,0,39:06.9,1540931947,-0.398998523,0.102699481,0.159781143,0.02645874,-0.229064941,-0.674789429,39.90142822,21.78575134,-72.96977234
0,38:58.8,0:23,60,0,39:06.9,1540931947,-0.476913562,0.224583309,0.161021111,0.038391113,-0.235183716,-0.757797241,39.90142822,21.78575134,-72.96977234
0,38:58.8,0:23,60,0,39:06.9,1540931947,-0.469182139,0.368405993,0.150488043,0.055404663,-0.230773926,-0.857467651,39.47344971,22.88137817,-72.48390198
0,38:58.8,0:23,60,0,39:06.9,1540931947,-0.36962066,0.403340541,0.101247526,0.047363281,-0.221206665,-0.978820801,39.71424866,23.22305298,-72.14585876
0,38:58.8,0:23,60,0,39:07.0,1540931947,-0.175759577,0.260088839,0.026063825,0.039535522,-0.210784912,-1.110473633,40.34552002,23.02032471,-72.27516174
0,38:58.8,0:23,60,0,39:07.0,1540931947,0.033209619,0.042078212,-0.053499178,0.076477051,-0.178192139,-1.278213501,40.83448792,22.61279297,-72.34181213
0,38:58.8,0:23,60,0,39:07.0,1540931947,0.164407587,-0.037847248,-0.126447954,0.060028076,-0.176177979,-1.266799927,40.59628296,22.27139282,-72.36747742
0,38:58.8,0:23,60,0,39:07.0,1540931947,0.206465026,0.044216996,-0.192750279,0.027755737,-0.173782349,-1.249282837,40.1438446,23.13725281,-72.51597595
0,38:58.8,0:23,60,0,39:07.0,1540931947,0.174367809,0.200538161,-0.25787229,0.002761841,-0.175689697,-1.263214111,40.1438446,23.13725281,-72.51597595
0,38:58.8,0:23,60,0,39:07.0,1540931947,0.153968794,0.252989651,-0.342400757,-0.006362915,-0.170379639,-1.319885254,39.59057617,23.24746704,-72.15167236
0,38:58.8,0:23,60,0,39:07.1,1540931947,0.150845439,0.122577582,-0.45071791,0.010238647,-0.147827148,-1.354049683,39.88114929,22.9571991,-72.06858826
0,38:58.8,0:23,60,0,39:07.1,1540931947,0.122846561,-0.062929165,-0.516262566,0.053009033,-0.141876221,-1.333282471,40.31678772,22.1716156,-72.23027039
0,38:58.8,0:23,60,0,39:07.1,1540931947,-0.044248155,-0.097314037,-0.442375292,0.09928894,-0.18371582,-1.257507324,40.2066803,22.11546326,-72.31640625
0,38:58.8,0:23,60,0,39:07.1,1540931947,-0.286454933,0.089199119,-0.250402656,0.106948853,-0.200775146,-1.2293396,39.5398407,22.86962891,-71.93431091
0,38:58.8,0:23,60,0,39:07.1,1540931947,-0.343194645,0.129424835,-0.165741298,0.07484436,-0.115188599,-1.28918457,39.5398407,22.86962891,-71.93431091
0,38:58.8,0:23,60,0,39:07.1,1540931947,-0.118910143,-0.035652536,-0.265589066,0.028900146,-0.026367188,-1.282211304,38.69728088,23.27023315,-71.49688721
0,38:58.8,0:23,60,0,39:07.2,1540931947,0.188343546,-0.14706881,-0.45962645,0.013519287,0.004547119,-1.139205933,38.81245422,23.6361084,-71.39894104
0,38:58.8,0:23,60,0,39:07.2,1540931947,0.369667532,0.052644303,-0.527958903,0.054122925,-0.059463501,-0.953536987,39.0234375,22.42854309,-71.66659546
0,38:58.8,0:23,60,0,39:07.2,1540931947,0.351832076,0.31081034,-0.400203603,0.116378784,-0.147918701,-0.85546875,39.37635803,22.43537903,-72.11547852
0,38:58.8,0:23,60,0,39:07.2,1540931947,0.212583372,0.346030113,-0.218080136,0.147491455,-0.190811157,-0.830566406,38.65048218,22.50163269,-71.91835022
0,38:58.8,0:23,60,0,39:07.2,1540931947,0.053595584,0.192161986,-0.037256026,0.140960693,-0.194046021,-0.813598633,38.65048218,22.50163269,-71.91835022
0,38:58.8,0:23,60,0,39:07.2,1540931947,-0.074711522,0.0371234,0.092157891,0.095352173,-0.167037964,-0.782196045,38.01268005,23.09484863,-71.46260071
0,38:58.8,0:23,60,0,39:07.3,1540931947,-0.148303452,-0.041277665,0.129559059,0.043441772,-0.134735107,-0.76121521,38.18203735,23.13850403,-71.6859436
0,38:58.8,0:23,60,0,39:07.3,1540931947,-0.173921463,0.027263845,0.091098751,-0.004058838,-0.100143433,-0.75668335,38.62663269,22.66304016,-71.36721802
0,38:58.8,0:23,60,0,39:07.3,1540931947,-0.142730254,0.078027158,0.034398188,-0.016098022,-0.09703064,-0.799163818,39.32281494,22.75767517,-71.71611023
0,38:58.8,0:23,60,0,39:07.3,1540931947,-0.030639935,-0.005135374,0.005355351,-0.004119873,-0.109863281,-0.842712402,38.6375885,22.58222961,-71.75991821
0,38:58.8,0:23,60,0,39:07.3,1540931947,0.128196852,-0.155904912,0.000847684,7.63E-05,-0.125366211,-0.839172363,37.56367493,23.26062012,-71.71502686
0,38:58.8,0:23,60,0,39:07.3,1540931947,0.232419661,-0.168880099,0.020082099,-0.020446777,-0.140655518,-0.774215698,37.56367493,23.26062012,-71.71502686
0,38:58.8,0:23,60,0,39:07.4,1540931947,0.236123852,-0.004481035,0.012787967,-0.048187256,-0.155731201,-0.734420776,37.34407043,23.14842224,-71.8092041
0,38:58.8,0:23,60,0,39:07.4,1540931947,0.202516889,0.115960159,-0.002047438,-0.054611206,-0.163772583,-0.752883911,37.66746521,23.0068512,-71.796875
0,38:58.8,0:23,60,0,39:07.4,1540931947,0.12698751,0.155640194,-0.006263755,-0.037033081,-0.173858643,-0.795455933,38.45991516,22.22850037,-71.93887329
0,38:58.8,0:23,60,0,39:07.4,1540931947,0.036161999,0.145610197,0.015162974,-0.002548218,-0.185821533,-0.840881348,38.22741699,22.19691467,-71.87464905
0,38:58.8,0:23,60,0,39:07.4,1540931947,-0.058840147,0.15482793,0.101937018,0.029190063,-0.201004028,-0.893096924,37.68884277,22.53594971,-72.04742432
0,38:58.8,0:23,60,0,39:07.4,1540931947,-0.082167574,0.161194483,0.18869029,0.031173706,-0.1925354,-0.965454102,37.68884277,22.53594971,-72.04742432
0,38:58.8,0:23,60,0,39:07.5,1540931947,-0.028246552,0.174763555,0.182268876,0.008605957,-0.153182983,-0.995513916,37.1257782,23.03633118,-71.74719238
0,38:58.8,0:23,60,0,39:07.5,1540931947,-0.052792375,0.361083099,0.170725137,0.006912231,-0.159347534,-0.994888306,37.60691833,23.01921082,-71.64360046
0,38:58.8,0:23,60,0,39:07.5,1540931947,-0.164747939,0.681061105,0.213981265,0.016616821,-0.188568115,-1.061950684,38.49790955,22.37770081,-71.38484192
0,38:58.8,0:23,60,0,39:07.5,1540931948,-0.213424931,0.78195949,0.253739331,0.053573608,-0.181030273,-1.203094482,39.43769836,22.11387634,-71.57772827
0,38:58.8,0:23,60,0,39:07.5,1540931948,-0.204824518,0.591308048,0.304903449,0.123291016,-0.138397217,-1.317047119,39.01054382,22.50915527,-71.50817871
0,38:58.8,0:23,60,0,39:07.5,1540931948,-0.128978223,0.144948401,0.306476312,0.154953003,-0.11831665,-1.409729004,39.01054382,22.50915527,-71.50817871
0,38:58.8,0:23,60,0,39:07.6,1540931948,-0.150323726,-0.443028033,0.252213073,0.145263672,-0.126205444,-1.391555786,38.16604614,22.9095459,-71.30502319
0,38:58.8,0:23,60,0,39:07.6,1540931948,-0.150323726,-0.443028033,0.252213073,0.119094849,-0.140335083,-1.30255127,37.9571991,23.41694641,-71.29750061
0,38:58.8,0:23,60,0,39:07.6,1540931948,-0.40513631,-0.28395023,0.30280115,0.132019043,-0.146255493,-1.214813232,38.41534424,22.86090088,-71.05911255
0,38:58.8,0:23,60,0,39:07.6,1540931948,-0.706119054,0.138054809,0.440464474,0.122467041,-0.15524292,-1.230712891,39.02455139,23.12905884,-71.01599121
0,38:58.8,0:23,60,0,39:07.6,1540931948,-0.66978315,0.182163414,0.41266773,0.11769104,-0.055847168,-1.382797241,38.55891418,23.06582642,-70.96560669
0,38:58.8,0:23,60,0,39:07.6,1540931948,-0.322361802,-0.134139696,0.237643451,0.111343384,0.042572021,-1.413726807,37.69696045,23.54641724,-71.15071106
0,38:58.8,0:23,60,0,39:07.7,1540931948,0.152150388,-0.517375234,-0.003887416,0.10067749,0.07119751,-1.300796509,37.69696045,23.54641724,-71.15071106
0,38:58.8,0:23,60,0,39:07.7,1540931948,0.434620699,-0.562776805,-0.1475069,0.136260986,0.012588501,-1.053527832,36.74493408,23.89094543,-70.72132874
0,38:58.8,0:23,60,0,39:07.7,1540931948,0.46081928,-0.345873253,-0.085135667,0.193572998,-0.084838867,-0.883453369,37.17077637,23.49549866,-70.947052
0,38:58.8,0:23,60,0,39:07.7,1540931948,0.13577754,0.126667132,0.185382643,0.195663452,-0.153671265,-0.793075562,37.77253723,22.75323486,-71.72254944
0,38:58.8,0:23,60,0,39:07.7,1540931948,0.13577754,0.126667132,0.185382643,0.161758423,-0.13458252,-0.772567749,37.63874817,22.15814209,-71.75198364
0,38:58.8,0:23,60,0,39:07.7,1540931948,0.05827103,0.065853582,0.161767329,0.158050537,-0.083648682,-0.814743042,36.76455688,22.71942139,-71.70059204
0,38:58.8,0:23,60,0,39:07.8,1540931948,0.101678159,-0.242864579,0.172084681,0.169296265,-0.081604004,-0.822006226,36.76455688,22.71942139,-71.70059204
0,38:58.8,0:23,60,0,39:07.8,1540931948,0.101678159,-0.242864579,0.172084681,0.173110962,-0.109283447,-0.791519165,36.12757874,22.61233521,-71.66116333
0,38:58.8,0:23,60,0,39:07.8,1540931948,0.142197622,-0.29322602,0.226626753,0.169387817,-0.134460449,-0.746017456,36.32450867,23.19532776,-71.47262573
0,38:58.8,0:23,60,0,39:07.8,1540931948,0.192728174,-0.172904935,0.310290225,0.135772705,-0.153869629,-0.708374023,36.97145081,22.21185303,-71.94242859
0,38:58.8,0:23,60,0,39:07.8,1540931948,0.192728174,-0.172904935,0.310290225,0.093887329,-0.168029785,-0.682540894,37.16673279,21.78503418,-71.86961365
0,38:58.8,0:23,60,0,39:07.8,1540931948,0.036672261,0.157389358,0.31394781,0.074539185,-0.168777466,-0.650726318,36.37513733,21.8631134,-72.14393616
0,38:58.8,0:23,60,0,39:07.9,1540931948,-0.162780129,0.251223442,0.318395023,0.081634521,-0.188217163,-0.713394165,36.37513733,21.8631134,-72.14393616
0,38:58.8,0:23,60,0,39:07.9,1540931948,-0.162780129,0.251223442,0.318395023,0.081634521,-0.188217163,-0.713394165,35.94926453,22.2585144,-71.91821289
0,38:58.8,0:23,60,0,39:07.9,1540931948,-0.395437877,0.687905961,0.138014062,0.067489624,-0.171707153,-0.773895264,36.44181824,22.86103821,-71.6348114
0,38:58.8,0:23,60,0,39:07.9,1540931948,-0.38347762,0.880367021,-0.144458912,0.072235107,-0.126281738,-0.938644409,37.66629028,22.69750977,-71.34010315
0,38:58.8,0:23,60,0,39:07.9,1540931948,-0.38347762,0.880367021,-0.144458912,0.072235107,-0.126281738,-0.938644409,38.44833374,22.30924988,-71.62426758
0,38:58.8,0:23,60,0,39:07.9,1540931948,-0.058092864,0.566588587,-0.356954932,0.161514282,-0.176498413,-1.07232666,38.1063385,22.22158813,-71.56806946
0,38:58.8,0:23,60,0,39:08.0,1540931948,0.148123688,0.332570763,-0.213797773,0.283538818,-0.307220459,-1.204345703,37.3409729,22.83885193,-71.5867157
0,38:58.8,0:23,60,0,39:08.0,1540931948,0.284164082,0.147894656,-0.069491993,0.283538818,-0.307220459,-1.204345703,37.3409729,22.83885193,-71.5867157
0,38:58.8,0:23,60,0,39:08.0,1540931948,0.304356968,0.066374496,-0.018196048,0.212677002,-0.28453064,-1.147399902,37.48014832,22.73406982,-71.42692566
0,38:58.8,0:23,60,0,39:08.0,1540931948,0.221578198,0.127619212,0.011883557,0.175140381,-0.277664185,-1.128723145,38.07795715,22.38256836,-71.56362915
0,38:58.8,0:23,60,0,39:08.0,1540931948,0.126593895,0.238679421,0.055948753,0.160125732,-0.240859985,-1.173828125,38.79373169,21.69682312,-71.78439331
0,38:58.8,0:23,60,0,39:08.0,1540931948,0.144502588,0.234228214,0.044159472,0.126708984,-0.190567017,-1.280990601,38.55421448,21.3553009,-71.96626282
0,38:58.8,0:23,60,0,39:08.1,1540931948,0.274235285,-0.008821987,-0.075037227,0.099197388,-0.140930176,-1.341201782,37.67173767,21.60647583,-72.31713867
0,38:58.8,0:23,60,0,39:08.1,1540931948,0.300968895,-0.210966833,-0.168457988,0.099197388,-0.140930176,-1.341201782,37.67173767,21.60647583,-72.31713867
0,38:58.8,0:23,60,0,39:08.1,1540931948,0.200304868,-0.045544582,-0.18108004,0.075317383,-0.144607544,-1.210693359,36.93164063,21.75320435,-72.11775208
0,38:58.8,0:23,60,0,39:08.1,1540931948,0.028932316,0.349570519,-0.121653998,0.075317383,-0.144607544,-1.210693359,37.64399719,21.76750183,-72.23458862
0,38:58.8,0:23,60,0,39:08.1,1540931948,-0.078170436,0.518042356,-0.070019032,0.096359253,-0.041854858,-1.295196533,38.79586792,20.99662781,-72.04450989
0,38:58.8,0:23,60,0,39:08.1,1540931948,0.056308547,0.332233341,-0.179508509,0.063323975,0.054611206,-1.346847534,39.08255005,20.70597839,-72.43003845
0,38:58.8,0:23,60,0,39:08.2,1540931948,0.327401568,-0.036168923,-0.396342286,0.063323975,0.054611206,-1.346847534,37.76538086,20.73321533,-72.42262268
0,38:58.8,0:23,60,0,39:08.2,1540931948,0.450316838,-0.334247223,-0.532739011,0.047286987,0.06942749,-1.123336792,37.76538086,20.73321533,-72.42262268
0,38:58.8,0:23,60,0,39:08.2,1540931948,0.382698113,-0.361488698,-0.59058287,0.038482666,-0.000320435,-0.957122803,36.77032471,20.61877441,-72.55906677
0,38:58.8,0:23,60,0,39:08.2,1540931948,0.211456855,-0.186770417,-0.594609569,0.038482666,-0.000320435,-0.957122803,36.66589355,20.87243652,-72.55529785
0,38:58.8,0:23,60,0,39:08.2,1540931948,0.043509927,0.110159528,-0.603840618,0.024887085,-0.077362061,-0.807495117,37.53567505,20.00149536,-72.54042053
0,38:58.8,0:23,60,0,39:08.2,1540931948,-0.012029765,0.253507902,-0.614359039,0.048492432,-0.076126099,-0.8387146,37.90344238,19.92791748,-72.91345215
0,38:58.8,0:23,60,0,39:08.3,1540931948,0.020229105,0.212041419,-0.600496753,0.095977783,-0.072341919,-0.86668396,37.33680725,19.41828918,-72.96325684
0,38:58.8,0:23,60,0,39:08.3,1540931948,0.045962698,0.053588127,-0.527879807,0.145263672,-0.079620361,-0.864715576,35.96728516,20.07717896,-73.01322937
0,38:58.8,0:23,60,0,39:08.3,1540931948,-0.011964518,-0.137673444,-0.434936817,0.163925171,-0.090011597,-0.83241272,35.96728516,20.07717896,-73.01322937
0,38:58.8,0:23,60,0,39:08.3,1540931948,-0.113662117,-0.284014679,-0.380478901,0.141647339,-0.09262085,-0.808761597,35.65089417,20.52867126,-72.7794342
0,38:58.8,0:23,60,0,39:08.3,1540931948,-0.115094365,-0.331450371,-0.415875507,0.094329834,-0.072647095,-0.795272827,36.26925659,20.40655518,-72.75035095
0,38:58.8,0:23,60,0,39:08.3,1540931948,-0.024513865,-0.241306097,-0.455408003,0.08605957,-0.084701538,-0.767150879,36.78907776,20.14756775,-73.12199402
0,38:58.8,0:23,60,0,39:08.4,1540931948,0.042633214,-0.048488174,-0.418777021,0.108947754,-0.13041687,-0.758728027,36.37451172,19.45254517,-73.17042542
0,38:58.8,0:23,60,0,39:08.4,1540931948,0.068061609,0.095822134,-0.323298435,0.133377075,-0.167526245,-0.781555176,35.41418457,19.48698425,-73.14334106
0,38:58.8,0:23,60,0,39:08.4,1540931948,0.068064006,0.124528614,-0.199043062,0.156478882,-0.187957764,-0.825439453,35.41418457,19.48698425,-73.14334106
0,38:58.8,0:23,60,0,39:08.4,1540931948,0.080539318,0.021219002,-0.089945603,0.161529541,-0.189071655,-0.862350464,34.62059021,19.95600891,-72.54457092
0,38:58.8,0:23,60,0,39:08.4,1540931948,0.071363662,-0.144547596,0.001946238,0.155929565,-0.196075439,-0.8724823,35.48680115,20.09437561,-73.03871155
0,38:58.8,0:23,60,0,39:08.4,1540931948,-0.004091681,-0.192727109,0.059731507,0.125427246,-0.199829102,-0.8487854,36.40795898,19.60131836,-73.16308594
0,38:58.8,0:23,60,0,39:08.5,1540931948,-0.090773047,-0.101117031,0.079140892,0.095016479,-0.208236694,-0.852859497,36.66184998,19.16195679,-73.47787476
0,38:58.8,0:23,60,0,39:08.5,1540931948,-0.130591832,0.034470626,0.078246869,0.087600708,-0.216903687,-0.901641846,35.85359192,19.01101685,-73.44940186
0,38:58.8,0:23,60,0,39:08.5,1540931948,-0.104197776,0.153100071,0.101945807,0.120864868,-0.230529785,-0.975250244,35.85359192,19.01101685,-73.44940186
0,38:58.8,0:23,60,0,39:08.5,1540931949,-0.069973759,0.224862409,0.196261923,0.163345337,-0.244293213,-1.050125122,35.22802734,19.52355957,-73.23016357
0,38:58.8,0:23,60,0,39:08.5,1540931949,-0.073907514,0.280685461,0.310913937,0.192245483,-0.239440918,-1.118621826,35.76315308,19.88461304,-72.95343018
0,38:58.8,0:23,60,0,39:08.5,1540931949,-0.097330815,0.280503301,0.412651218,0.199081421,-0.211929321,-1.193634033,37.2800293,19.74024963,-72.9543457
0,38:58.8,0:23,60,0,39:08.6,1540931949,-0.082470376,0.185106207,0.430734615,0.190170288,-0.158950806,-1.246444702,38.21279907,19.16645813,-73.39332581
0,38:58.8,0:23,60,0,39:08.6,1540931949,0.012124041,0.023389745,0.342701694,0.194534302,-0.108337402,-1.263580322,37.6461792,18.65682983,-73.44313049
0,38:58.8,0:23,60,0,39:08.6,1540931949,0.151096841,-0.113068233,0.323224399,0.223510742,-0.089889526,-1.244567871,36.54927063,18.79634094,-73.26344299
0,38:58.8,0:23,60,0,39:08.6,1540931949,0.151096841,-0.113068233,0.323224399,0.274398804,-0.153442383,-1.245239258,36.54927063,18.79634094,-73.26344299
0,38:58.8,0:23,60,0,39:08.6,1540931949,-0.01900778,-0.117143668,0.939005833,0.314559937,-0.212493896,-1.249237061,36.46539307,19.27940369,-73.09388733
0,38:58.8,0:23,60,0,39:08.6,1540931949,-0.281802391,-0.003712447,1.063428985,0.211898804,-0.083786011,-1.163101196,37.80395508,18.78126526,-73.35185242
0,38:58.8,0:23,60,0,39:08.7,1540931949,-0.281802391,-0.003712447,1.063428985,0.211898804,-0.083786011,-1.163101196,39.07345581,18.68574524,-73.3644104
0,38:58.8,0:23,60,0,39:08.7,1540931949,-0.232719267,-0.35747345,0.693533487,0.130813599,0.016677856,-1.20501709,38.62919617,18.15158081,-73.56459045
0,38:58.8,0:23,60,0,39:08.7,1540931949,-0.019129752,-0.454925705,0.478118642,0.051559448,0.050216675,-1.112838745,37.53669739,18.60076904,-73.45117188
0,38:58.8,0:23,60,0,39:08.7,1540931949,-0.019129752,-0.454925705,0.478118642,0.051559448,0.050216675,-1.112838745,37.53669739,18.60076904,-73.45117188
0,38:58.8,0:23,60,0,39:08.7,1540931949,0.114618725,-0.180816654,0.312440994,0.056503296,-0.030273438,-1.012145996,36.8604126,18.73548889,-73.0145874
0,38:58.8,0:23,60,0,39:08.7,1540931949,0.114618725,-0.180816654,0.312440994,0.072677612,-0.088882446,-0.918304443,37.66036987,18.57635498,-73.44535828
0,38:58.8,0:23,60,0,39:08.8,1540931949,-0.039376168,0.234174684,0.228391896,0.08770752,-0.105300903,-0.863479614,38.9112854,18.25164795,-73.38938904
0,38:58.8,0:23,60,0,39:08.8,1540931949,-0.098660531,0.307421468,0.176024295,0.138870239,-0.087295532,-0.889282227,38.86772156,17.4833374,-73.42036438
0,38:58.8,0:23,60,0,39:08.8,1540931949,-0.098660531,0.307421468,0.176024295,0.138870239,-0.087295532,-0.889282227,38.55462646,17.54402161,-73.9034729
0,38:58.8,0:23,60,0,39:08.8,1540931949,-0.086005456,0.188485759,0.135181791,0.165206909,-0.079956055,-0.922332764,37.74554443,18.09339905,-73.45869446
0,38:58.8,0:23,60,0,39:08.8,1540931949,-0.029282255,-0.061769092,0.099520998,0.180084229,-0.102722168,-0.962387085,37.74554443,18.09339905,-73.45869446
0,38:58.8,0:23,60,0,39:08.8,1540931949,-0.029282255,-0.061769092,0.099520998,0.180084229,-0.102722168,-0.962387085,38.1756134,18.70805359,-73.25630188
0,38:58.8,0:23,60,0,39:08.9,1540931949,0.139169874,-0.21346834,0.03397075,0.156143188,-0.122680664,-0.926757813,39.3106842,18.01737976,-73.37638855
0,38:58.8,0:23,60,0,39:08.9,1540931949,0.198399642,-0.094884169,-0.009802563,0.106689453,-0.141738892,-0.807785034,39.50143433,17.59011841,-73.8502655
0,38:58.8,0:23,60,0,39:08.9,1540931949,0.218521955,0.010082994,-0.070717047,0.106689453,-0.141738892,-0.807785034,39.25816345,16.93896484,-73.88774109
0,38:58.8,0:23,60,0,39:08.9,1540931949,0.19175692,0.066776367,-0.118829449,0.094680786,-0.164535522,-0.783538818,38.07106018,17.25166321,-73.70651245
0,38:58.8,0:23,60,0,39:08.9,1540931949,0.120337064,0.083900227,-0.172334219,0.080718994,-0.171356201,-0.797821045,38.07106018,17.25166321,-73.70651245
0,38:58.8,0:23,60,0,39:08.9,1540931949,0.052775064,0.055696552,-0.260163408,0.080718994,-0.171356201,-0.797821045,38.15719604,17.77845764,-73.68222046
0,38:58.8,0:23,60,0,39:09.0,1540931949,0.011152253,-0.014964568,-0.341626044,0.081604004,-0.192367554,-0.847869873,39.10021973,17.5149231,-73.48460388
0,38:58.8,0:23,60,0,39:09.0,1540931949,-0.006583068,-0.009142099,-0.402653712,0.085617065,-0.205032349,-0.847595215,40.06204224,16.78022766,-73.84991455
0,38:58.8,0:23,60,0,39:09.0,1540931949,-0.022510635,0.081990208,-0.433592453,0.085617065,-0.205032349,-0.847595215,39.66477966,16.31427002,-74.12306213
0,38:58.8,0:23,60,0,39:09.0,1540931949,-0.035772645,0.226181472,-0.485883621,0.070098877,-0.213363647,-0.896072388,38.68434143,16.8197937,-73.6892395
0,38:58.8,0:23,60,0,39:09.0,1540931949,-0.02861247,0.291386309,-0.580040746,0.076904297,-0.198013306,-0.953674316,38.68434143,16.8197937,-73.6892395
0,38:58.8,0:23,60,0,39:09.0,1540931949,0.004787831,0.231992756,-0.683995642,0.093475342,-0.197341919,-1.014038086,38.4291687,17.25900269,-73.53063965
0,38:58.8,0:23,60,0,39:09.1,1540931949,0.052328985,0.115013938,-0.756969984,0.108230591,-0.212112427,-1.052215576,39.10217285,17.51512146,-73.25032043
0,38:58.8,0:23,60,0,39:09.1,1540931949,0.038519429,0.09582746,-0.794470488,0.111129761,-0.223617554,-1.06993103,40.07800293,17.40029907,-73.12345886
0,38:58.8,0:23,60,0,39:09.1,1540931949,0.019951071,0.131818751,-0.82440575,0.100799561,-0.226470947,-1.113998413,40.17282104,16.83642578,-73.6856842
0,38:58.8,0:23,60,0,39:09.1,1540931949,0.041393513,0.158824536,-0.86721207,0.089630127,-0.211349487,-1.177688599,39.21118164,16.87072754,-73.81477356
0,38:58.8,0:23,60,0,39:09.1,1540931949,0.113584886,0.083783314,-0.937998892,0.074966431,-0.182922363,-1.243713379,39.21118164,16.87072754,-73.81477356
0,38:58.8,0:23,60,0,39:09.1,1540931949,0.266792016,-0.132417696,-1.065735017,0.047973633,-0.149993896,-1.28855896,38.27140808,17.13459778,-73.62191772
0,38:58.8,0:23,60,0,39:09.2,1540931949,0.344230349,-0.22456227,-1.199725043,0.026657104,-0.119735718,-1.249679565,38.41563416,17.33955383,-73.45031738
0,38:58.8,0:23,60,0,39:09.2,1540931949,0.311149361,-0.270663986,-1.222262043,0.027893066,-0.102554321,-1.231933594,39.21313477,16.8709259,-73.58050537
0,38:58.8,0:23,60,0,39:09.2,1540931949,0.203478823,-0.376984034,-1.153832119,0.01008606,-0.046356201,-1.219024658,39.44058228,16.59277344,-73.65653992
0,38:58.8,0:23,60,0,39:09.2,1540931949,0.111699368,-0.183203911,-1.246735961,-0.057449341,0.056091309,-1.178604126,38.45074463,16.087677,-74.27560425
0,38:58.8,0:23,60,0,39:09.2,1540931949,0.244290435,0.062029815,-1.491692719,-0.094390869,0.127288818,-1.193161011,37.0304718,16.36872864,-74.10823059
0,38:58.8,0:23,60,0,39:09.2,1540931949,0.644712684,0.09580509,-1.702707223,-0.057739258,0.123413086,-1.205688477,37.0304718,16.36872864,-74.10823059
0,38:58.8,0:23,60,0,39:09.3,1540931949,0.901654732,-0.041995121,-1.669742349,0.02986145,0.044250488,-1.100280762,36.53707886,16.46653748,-73.97529602
0,38:58.8,0:23,60,0,39:09.3,1540931949,0.377088164,-0.042207641,-1.439381045,0.015335083,-0.036422729,-0.960952759,37.35385132,16.22718811,-74.09590149
0,38:58.8,0:23,60,0,39:09.3,1540931949,0.377088164,-0.042207641,-1.439381045,-0.046798706,-0.068023682,-0.923110962,37.95033264,15.87553406,-74.38877869
0,38:58.8,0:23,60,0,39:09.3,1540931949,-0.079596825,-0.063611467,-1.482131971,-0.090118408,-0.062667847,-0.929519653,37.67985535,15.69474792,-74.87858582
0,38:58.8,0:23,60,0,39:09.3,1540931949,-0.420666002,-0.25449194,-1.616143036,-0.070419312,-0.031768799,-1.02645874,36.28799438,15.81478882,-74.71565247
0,38:58.8,0:23,60,0,39:09.3,1540931949,-0.420666002,-0.25449194,-1.616143036,-0.039382935,0.010467529,-1.15335083,36.28799438,15.81478882,-74.71565247
0,38:58.8,0:23,60,0,39:09.4,1540931949,-0.170783194,-0.382082923,-1.684895735,-0.030380249,0.054138184,-1.223297119,35.12008667,16.35675049,-74.52482605
0,38:58.8,0:23,60,0,39:09.4,1540931949,0.236205877,-0.509040073,-1.748331167,-0.041763306,0.063369751,-1.228942871,34.84761047,16.56689453,-74.14151001
0,38:58.8,0:23,60,0,39:09.4,1540931949,0.581861816,-0.553056267,-1.849129684,-0.068481445,0.055725098,-1.137329102,35.14064026,16.58616638,-74.35903931
0,38:58.8,0:23,60,0,39:09.4,1540931949,0.894815202,-0.41974508,-2.127464639,-0.088165283,0.043670654,-1.032913208,34.79821777,15.79803467,-74.87536621
0,38:58.8,0:23,60,0,39:09.4,1540931949,0.894815202,-0.41974508,-2.127464639,-0.10609436,0.0287323,-0.941131592,33.44845581,14.97618103,-75.29164124
0,38:58.8,0:23,60,0,39:09.4,1540931949,0.831865797,-0.195828094,-2.252464099,-0.075241089,0.010955811,-0.884613037,33.44845581,14.97618103,-75.29164124
0,38:58.8,0:23,60,0,39:09.5,1540931949,0.769893506,-0.19268876,-2.347752003,-0.01663208,0.001449585,-0.93598938,31.97694397,14.1789093,-75.47941589
0,38:58.8,0:23,60,0,39:09.5,1540931949,0.769893506,-0.19268876,-2.347752003,0.02746582,-0.010543823,-1.042755127,31.61703491,13.86210632,-75.27662659
0,38:58.8,0:23,60,0,39:09.5,1540931949,0.881908192,-0.500868163,-2.366363771,0.058517456,0.00592041,-1.095901489,31.82325745,13.35449219,-75.5965271
0,38:58.8,0:23,60,0,39:09.5,1540931950,0.851869066,-1.086034696,-2.291047178,0.10194397,0.019821167,-1.074707031,31.47169495,12.95661926,-76.09883118
0,38:58.8,0:23,60,0,39:09.5,1540931950,0.706548089,-1.147861578,-2.169010218,0.087188721,-0.064834595,-0.968734741,29.77490234,11.73733521,-76.47070313
0,38:58.8,0:23,60,0,39:09.5,1540931950,0.575728822,-1.019425841,-2.056379809,0.087188721,-0.064834595,-0.968734741,28.13160706,10.58691406,-76.13456726
0,38:58.8,0:23,60,0,39:09.6,1540931950,0.487602425,-0.963580685,-2.015596959,-0.012512207,-0.048416138,-0.946121216,28.13160706,10.58691406,-76.13456726
0,38:58.8,0:23,60,0,39:09.6,1540931950,0.487602425,-0.963580685,-2.015596959,-0.012512207,-0.048416138,-0.946121216,26.56529236,10.35354614,-75.76011658
0,38:58.8,0:23,60,0,39:09.6,1540931950,0.271156937,-0.767993607,-1.990673766,-0.024032593,-0.026199341,-0.9324646,26.54980469,10.43388367,-75.91407776
0,38:58.8,0:23,60,0,39:09.6,1540931950,0.201732855,-0.509199596,-1.896101987,-0.01701355,-0.067993164,-0.966644287,26.7449646,10.31632996,-76.45425415
0,38:58.8,0:23,60,0,39:09.6,1540931950,0.201732855,-0.509199596,-1.896101987,-0.01701355,-0.067993164,-0.966644287,26.38847351,9.299468994,-76.3553772
0,38:58.8,0:23,60,0,39:09.6,1540931950,0.441767292,0.126363265,-1.824698909,-0.057250977,-0.052886963,-1.011291504,25.67453003,8.275314331,-76.35429382
0,38:58.8,0:23,60,0,39:09.7,1540931950,0.577881722,0.12949461,-1.852570222,-0.028427124,-0.001571655,-1.109802246,25.67453003,8.275314331,-76.35429382
0,38:58.8,0:23,60,0,39:09.7,1540931950,0.586530071,-0.077017287,-1.892448929,-0.028427124,-0.001571655,-1.109802246,24.90066528,7.263549805,-76.12182617
0,38:58.8,0:23,60,0,39:09.7,1540931950,0.447896557,-0.362081784,-1.950593725,0.008132935,-0.0284729,-1.098312378,24.95809937,6.941665649,-76.05262756
0,38:58.8,0:23,60,0,39:09.7,1540931950,0.308888603,-0.589586048,-2.066493963,-0.010620117,-0.027374268,-1.082901001,25.35360718,6.707015991,-76.50820923
0,38:58.8,0:23,60,0,39:09.7,1540931950,0.296819424,-0.668978076,-2.199375847,-0.010620117,-0.027374268,-1.082901001,25.19013977,6.272796631,-76.68939209
0,38:58.8,0:23,60,0,39:09.7,1540931950,0.390548313,-0.717907536,-2.360088032,0.001754761,0.024536133,-1.088867188,24.25346375,4.826873779,-76.5599823
0,38:58.8,0:23,60,0,39:09.8,1540931950,0.45543357,-0.805502366,-2.519770105,0.033432007,0.027130127,-1.061965942,24.25346375,4.826873779,-76.5599823
0,38:58.8,0:23,60,0,39:09.8,1540931950,0.437116614,-0.873000983,-2.636572889,0.033432007,0.027130127,-1.061965942,22.95472717,3.764343262,-75.96766663
0,38:58.8,0:23,60,0,39:09.8,1540931950,0.391044193,-0.840097628,-2.639733795,0.108505249,-0.043014526,-1.023468018,22.55322266,2.679473877,-75.56155396
0,38:58.8,0:23,60,0,39:09.8,1540931950,0.393613878,-0.793587384,-2.646102212,0.10218811,-0.030792236,-1.025665283,22.42822266,2.70375061,-75.72355652
0,38:58.8,0:23,60,0,39:09.8,1540931950,0.408055934,-0.848511086,-2.740409273,0.092391968,0.00743103,-1.023223877,22.64997864,2.115768433,-75.88952637
0,38:58.8,0:23,60,0,39:09.8,1540931950,0.363248248,-1.051819734,-2.911987155,0.076431274,0.039199829,-1.00289917,22.09916687,0.516159058,-75.66679382
0,38:58.8,0:23,60,0,39:09.9,1540931950,0.246520566,-1.276100242,-3.076077559,0.069778442,0.030151367,-0.961395264,21.16525269,-1.238754272,-74.61206055
0,38:58.8,0:23,60,0,39:09.9,1540931950,0.102404137,-1.370624617,-3.165040988,0.062179565,-0.016464233,-0.929901123,21.16525269,-1.238754272,-74.61206055
0,38:58.8,0:23,60,0,39:09.9,1540931950,-0.019560386,-1.341207872,-3.196030329,0.042236328,-0.055770874,-0.917236328,20.02232361,-2.177047729,-74.16275024
0,38:58.8,0:23,60,0,39:09.9,1540931950,-0.169304341,-1.236944849,-3.214070316,0.017593384,-0.038604736,-0.915863037,19.81887817,-2.369567871,-74.02487183
0,38:58.8,0:23,60,0,39:09.9,1540931950,-0.323388716,-1.175381886,-3.362807064,-0.026397705,0.032012939,-0.950180054,20.0771637,-2.499221802,-74.40592957
0,38:58.8,0:23,60,0,39:09.9,1540931950,-0.374137648,-1.133928452,-3.59940416,-0.021514893,0.060913086,-1.014144897,20.28161621,-3.316268921,-74.34716797
0,38:58.8,0:23,60,0,39:10.0,1540931950,-0.298576045,-1.07492958,-3.65824697,0.053314209,0.021377563,-1.063613892,20.33575439,-5.266677856,-73.40208435
0,38:58.8,0:23,60,0,39:10.0,1540931950,-0.15706685,-1.029108296,-3.555421788,0.090301514,-0.005310059,-1.067108154,20.33575439,-5.266677856,-73.40208435
0,38:58.8,0:23,60,0,39:10.0,1540931950,-0.046787479,-0.836875736,-3.475967442,0.057128906,-0.019012451,-1.024505615,19.96195984,-6.512634277,-73.07850647
0,38:58.8,0:23,60,0,39:10.0,1540931950,0.016071378,-0.526386839,-3.372796848,0.05456543,-0.065292358,-1.007659912,20.4967804,-7.161270142,-72.76133728
0,38:58.8,0:23,60,0,39:10.0,1540931950,-0.007018495,-0.35506755,-3.153053301,0.075912476,-0.122131348,-1.028945923,20.75376892,-7.291046143,-73.29859924
0,38:58.8,0:23,60,0,39:10.0,1540931950,-0.117938888,-0.333124701,-2.964527861,0.056106567,-0.121582031,-1.034378052,21.78378296,-7.728103638,-73.49304199
0,38:58.8,0:23,60,0,39:10.1,1540931950,-0.270774241,-0.303938586,-2.863794059,0.027359009,-0.082595825,-1.028457642,22.86436462,-9.106246948,-73.25137329
0,38:58.8,0:23,60,0,39:10.1,1540931950,-0.362114807,-0.255595288,-2.832657445,0.001998901,-0.023376465,-1.037902832,22.86436462,-9.106246948,-73.25137329
0,38:58.8,0:23,60,0,39:10.1,1540931950,-0.349502609,-0.24834643,-2.782321037,0.016159058,-0.01210022,-1.0728302,23.41026306,-10.1449585,-72.71394348
0,38:58.8,0:23,60,0,39:10.1,1540931950,-0.237641587,-0.321286151,-2.662501425,0.046051025,-0.02947998,-1.115097046,23.78323364,-10.21803284,-72.46218872
0,38:58.8,0:23,60,0,39:10.1,1540931950,-0.100697583,-0.418249183,-2.54593007,0.060501099,-0.028625488,-1.120727539,23.90805054,-9.933105469,-72.91314697
0,38:58.8,0:23,60,0,39:10.1,1540931950,0.026691798,-0.529057191,-2.460428485,0.03868103,-0.023925781,-1.099914551,24.44973755,-9.962554932,-72.96282959
0,38:58.8,0:23,60,0,39:10.2,1540931950,0.122199147,-0.678278634,-2.429580557,0.023147583,-0.028839111,-1.05632019,25.088974,-10.86491394,-72.64942932
0,38:58.8,0:23,60,0,39:10.2,1540931950,0.140030874,-0.793181784,-2.409380214,0.025222778,-0.058547974,-0.974411011,26.12957764,-12.00132751,-72.08872986
0,38:58.8,0:23,60,0,39:10.2,1540931950,0.002920689,-0.636983658,-2.191769593,0.023483276,-0.130722046,-0.912506104,26.12957764,-12.00132751,-72.08872986
0,38:58.8,0:23,60,0,39:10.2,1540931950,0.002920689,-0.636983658,-2.191769593,0.025436401,-0.183944702,-0.897354126,26.15045166,-12.78157043,-71.80439758
0,38:58.8,0:23,60,0,39:10.2,1540931950,-0.076726736,-0.44743876,-2.066225782,0.020401001,-0.207839966,-0.893264771,26.09236145,-12.4597168,-71.95170593
0,38:58.8,0:23,60,0,39:10.2,1540931950,-0.09568072,0.05676661,-1.793600378,0.008712769,-0.224685669,-0.92250061,26.46453857,-12.22361755,-72.39099121
0,38:58.8,0:23,60,0,39:10.3,1540931950,-0.09568072,0.05676661,-1.793600378,0.024520874,-0.227844238,-0.989593506,27.60910034,-12.29483032,-72.56558228
0,38:58.8,0:23,60,0,39:10.3,1540931950,0.003090865,0.153838033,-1.69177255,0.051055908,-0.211090088,-1.069335938,29.10112,-13.28752136,-72.05302429
0,38:58.8,0:23,60,0,39:10.3,1540931950,0.117836622,-0.042698462,-1.505712664,0.07711792,-0.207351685,-1.12059021,29.10112,-13.28752136,-72.05302429
0,38:58.8,0:23,60,0,39:10.3,1540931950,0.117836622,-0.042698462,-1.505712664,0.091537476,-0.221725464,-1.1431427,29.54702759,-13.76286316,-71.57810974
0,38:58.8,0:23,60,0,39:10.3,1540931950,0.075625785,-0.419837226,-1.220247628,0.102890015,-0.235519409,-1.139373779,29.56121826,-13.84335327,-71.58033752
0,38:58.8,0:23,60,0,39:10.3,1540931950,0.028781315,-0.552836822,-1.117597682,0.096435547,-0.206985474,-1.076629639,29.23330688,-13.70225525,-72.13934326
0,38:58.8,0:23,60,0,39:10.4,1540931950,0.028781315,-0.552836822,-1.117597682,0.096435547,-0.206985474,-1.076629639,29.609375,-13.46575928,-72.1100769
0,38:58.8,0:23,60,0,39:10.4,1540931950,-0.015806926,-0.765081174,-0.948652601,0.106079102,-0.192779541,-1.049606323,30.05461121,-13.94116211,-71.71327209
0,38:58.8,0:23,60,0,39:10.4,1540931950,0.009763415,-0.729770587,-0.914347624,0.052749634,-0.149581909,-1.016830444,30.57522583,-14.50932312,-71.39385986
0,38:58.8,0:23,60,0,39:10.4,1540931950,0.009763415,-0.729770587,-0.914347624,0.052749634,-0.149581909,-1.016830444,30.57522583,-14.50932312,-71.39385986
0,38:58.8,0:23,60,0,39:10.4,1540931950,-0.013795174,-0.508499984,-0.742731127,0.042236328,-0.133621216,-1.016052246,29.94021606,-14.6162262,-71.12013245
0,38:58.8,0:23,60,0,39:10.4,1540931950,-0.045239384,-0.477037132,-0.691283382,0.010238647,-0.085922241,-1.071121216,29.05706787,-14.36509705,-71.54911804
0,38:58.8,0:23,60,0,39:10.5,1540931950,-0.025570874,-0.402641994,-0.679416869,0.010238647,-0.085922241,-1.071121216,29.06652832,-13.7456665,-71.60360718
0,38:58.8,0:23,60,0,39:10.5,1540931950,0.061903315,-0.300673018,-0.693233349,-0.013290405,-0.008087158,-1.145614624,30.00126648,-14.31925964,-71.80830383
0,38:58.8,0:23,60,0,39:10.5,1540931950,0.182701906,-0.241223805,-0.702826854,-0.011993408,0.025375366,-1.175811768,30.91734314,-14.73091125,-70.83706665
0,38:58.8,0:23,60,0,39:10.5,1540931951,0.341877446,-0.364814986,-0.742639514,-0.011993408,0.025375366,-1.175811768,30.91734314,-14.73091125,-70.83706665
0,38:58.8,0:23,60,0,39:10.5,1540931951,0.409378992,-0.601996912,-0.827546416,0.000244141,0.070602417,-1.126190186,30.69151306,-15.46224976,-70.48629761
0,38:58.8,0:23,60,0,39:10.5,1540931951,0.305963387,-0.738055948,-0.905862261,-0.000839233,0.050033569,-1.039016724,29.82713318,-15.29115295,-70.37083435
0,38:58.8,0:23,60,0,39:10.6,1540931951,0.12505299,-0.699394838,-0.943251178,-0.000839233,0.050033569,-1.039016724,29.4528656,-15.21821594,-70.77876282
0,38:58.8,0:23,60,0,39:10.6,1540931951,-0.001481517,-0.489266901,-0.983654261,-0.047454834,-0.00428772,-0.963302612,30.26048279,-15.06735229,-70.8853302
0,38:58.8,0:23,60,0,39:10.6,1540931951,0.019665314,-0.172237014,-1.063582916,-0.057144165,0.014266968,-0.979492188,31.35752869,-15.51608276,-70.45205688
0,38:58.8,0:23,60,0,39:10.6,1540931951,0.168571439,0.054840346,-1.135086395,-0.020294189,0.012390137,-1.018692017,31.35752869,-15.51608276,-70.45205688
0,38:58.8,0:23,60,0,39:10.6,1540931951,0.334967342,0.148334877,-1.112523029,0.022460938,-0.036087036,-1.036376953,31.98452759,-16.3377533,-69.90214539
0,38:58.8,0:23,60,0,39:10.6,1540931951,0.400505872,0.078088677,-1.014106177,0.056732178,-0.076461792,-1.009384155,31.68954468,-16.35717773,-69.91891479
0,38:58.8,0:23,60,0,39:10.7,1540931951,0.304270149,-0.03819985,-0.914636311,0.070785522,-0.087814331,-0.944030762,31.68823242,-16.35731506,-70.07510376
0,38:58.8,0:23,60,0,39:10.7,1540931951,0.128784611,-0.061795191,-0.813962164,0.069702148,-0.095001221,-0.887786865,32.21948242,-15.99665833,-70.26696777
0,38:58.8,0:23,60,0,39:10.7,1540931951,-0.054727428,-0.035683695,-0.682169778,0.064208984,-0.121231079,-0.880264282,33.39500427,-16.22860718,-70.13360596
0,38:58.8,0:23,60,0,39:10.7,1540931951,-0.215840152,0.015124092,-0.558919216,0.056274414,-0.111694336,-0.910705566,33.93489075,-16.56752014,-69.80459595
0,38:58.8,0:23,60,0,39:10.7,1540931951,-0.303315672,0.034098316,-0.495693907,0.063323975,-0.071136475,-0.98651123,33.93489075,-16.56752014,-69.80459595
0,38:58.8,0:23,60,0,39:10.7,1540931951,-0.206894327,-0.023139408,-0.478653937,0.078201294,-0.035964966,-1.088821411,33.57937622,-16.57461548,-69.66809082
0,38:58.8,0:23,60,0,39:10.8,1540931951,0.033386719,-0.141272174,-0.455298547,0.100387573,-0.018692017,-1.125228882,32.92871094,-16.29190063,-70.16131592
0,38:58.8,0:23,60,0,39:10.8,1540931951,0.227767119,-0.20174617,-0.405089439,0.101669312,-0.040054321,-1.052764893,32.91827393,-15.90177917,-70.3034668
0,38:58.8,0:23,60,0,39:10.8,1540931951,0.240324456,-0.087468863,-0.341770653,0.089248657,-0.073760986,-0.956604004,33.87486267,-16.24586487,-70.18618774
0,38:58.8,0:23,60,0,39:10.8,1540931951,0.134887778,0.036611008,-0.282694816,0.073120117,-0.091903687,-0.914428711,34.69746399,-16.48464966,-69.60392761
0,38:58.8,0:23,60,0,39:10.8,1540931951,-0.087014528,-0.001467135,-0.235570447,0.063766479,-0.106369019,-0.93560791,34.69746399,-16.48464966,-69.60392761
0,38:58.8,0:23,60,0,39:10.8,1540931951,-0.07504495,-0.172647673,-0.192950016,0.100326538,-0.084396362,-1.003631592,34.46380615,-16.82562256,-69.082901
0,38:58.8,0:23,60,0,39:10.9,1540931951,-0.07504495,-0.172647673,-0.192950016,0.130203247,-0.097045898,-0.99130249,33.53236389,-16.64283752,-69.59512329
0,38:58.8,0:23,60,0,39:10.9,1540931951,-0.041974615,-0.199673432,-0.005590508,0.128128052,-0.121032715,-0.924453735,33.19024658,-16.42124939,-70.15190125
0,38:58.8,0:23,60,0,39:10.9,1540931951,-0.096137985,0.018650383,0.164958861,0.113769531,-0.154830933,-0.860046387,33.84776306,-16.08474731,-70.02554321
0,38:58.8,0:23,60,0,39:10.9,1540931951,-0.165980716,0.236304414,0.270188612,0.070129395,-0.1769104,-0.85508728,34.63938904,-16.16279602,-69.75120544
0,38:58.8,0:23,60,0,39:10.9,1540931951,-0.217891851,0.319034981,0.262807128,0.018173218,-0.128509521,-0.887954712,34.63938904,-16.16279602,-69.75120544
0,38:58.8,0:23,60,0,39:10.9,1540931951,-0.240275986,0.282672179,0.213508021,0.009735107,-0.103302002,-0.936630249,34.58929443,-16.54058838,-69.45574951
0,38:58.8,0:23,60,0,39:11.0,1540931951,-0.222198981,0.178835528,0.170541113,0.021224976,-0.103271484,-0.968643188,33.69259644,-16.20890808,-69.8044281
0,38:58.8,0:23,60,0,39:11.0,1540931951,-0.172928637,0.03777481,0.165000939,0.03767395,-0.121200562,-0.980407715,33.11668396,-16.01904297,-70.45317078
0,38:58.8,0:23,60,0,39:11.0,1540931951,-0.18041212,0.050418966,0.266750204,0.053588867,-0.169586182,-0.953201294,33.29109192,-15.66563416,-70.66468811
0,38:58.8,0:23,60,0,39:11.0,1540931951,-0.243044608,0.258132215,0.406233533,0.036239624,-0.208236694,-0.92729187,34.48213196,-15.97790527,-70.37736511
0,38:58.8,0:23,60,0,39:11.0,1540931951,-0.305616644,0.356700867,0.520952392,0.023117065,-0.203994751,-0.969985962,34.48213196,-15.97790527,-70.37736511
0,38:58.8,0:23,60,0,39:11.0,1540931951,-0.382253099,0.402675549,0.568145471,0.014846802,-0.197052002,-1.018661499,34.73207092,-16.02648926,-70.05334473
0,38:58.8,0:23,60,0,39:11.1,1540931951,-0.424143291,0.426971568,0.543555706,0.004608154,-0.172286987,-1.051574707,33.86572266,-15.85560608,-70.17216492
0,38:58.8,0:23,60,0,39:11.1,1540931951,-0.355138124,0.352982561,0.487763014,0.012496948,-0.155456543,-1.114761353,33.2175293,-15.26341248,-70.96595764
0,38:58.8,0:23,60,0,39:11.1,1540931951,-0.198391653,0.194824615,0.44255399,0.027679443,-0.136276245,-1.160079956,33.18438721,-14.40248108,-71.01374817
0,38:58.8,0:23,60,0,39:11.1,1540931951,-0.077843666,0.009811085,0.4380133,0.053970337,-0.149734497,-1.15071106,34.07652283,-14.73461914,-71.21177673
0,38:58.8,0:23,60,0,39:11.1,1540931951,-0.065857843,-0.058466772,0.4432805,0.040893555,-0.174087524,-1.069091797,34.07652283,-14.73461914,-71.21177673
0,38:58.8,0:23,60,0,39:11.1,1540931951,-0.123517678,-0.027559723,0.426198719,0.005187988,-0.187973022,-0.982727051,34.2318573,-14.91967773,-70.81991577
0,38:58.8,0:23,60,0,39:11.2,1540931951,-0.170317674,0.026132535,0.365237097,-0.026077271,-0.185958862,-0.926986694,33.69865417,-15.28053284,-70.86235046
0,38:58.8,0:23,60,0,39:11.2,1540931951,-0.172811192,0.076253226,0.279630583,-0.047058105,-0.18510437,-0.906295776,32.59066772,-14.75097656,-70.90292358
0,38:58.8,0:23,60,0,39:11.2,1540931951,-0.13909504,0.171321153,0.22726751,-0.05241394,-0.192428589,-0.893371582,32.46684265,-14.41732788,-71.521698
0,38:58.8,0:23,60,0,39:11.2,1540931951,-0.119749038,0.321440614,0.237085786,-0.044128418,-0.221466064,-0.879730225,33.04197693,-14.29801941,-71.56404114
0,38:58.8,0:23,60,0,39:11.2,1540931951,-0.160263175,0.611576569,0.268508423,-0.045166016,-0.25793457,-0.846588135,34.2194519,-14.52975464,-71.19636536
0,38:58.8,0:23,60,0,39:11.2,1540931951,-0.178593713,0.897323101,0.262440144,-0.058105469,-0.289077759,-0.843765259,34.2194519,-14.52975464,-71.19636536
0,38:58.8,0:23,60,0,39:11.3,1540931951,-0.105320564,0.93050955,0.172511053,-0.054260254,-0.28163147,-0.922241211,34.55522156,-15.06121826,-70.80760193
0,38:58.8,0:23,60,0,39:11.3,1540931951,-0.036643765,0.811288883,0.068473866,-0.02911377,-0.247680664,-0.976791382,34.26269531,-14.7711792,-71.12495422
0,38:58.8,0:23,60,0,39:11.3,1540931951,-0.114593159,0.618111966,0.147498112,0.027801514,-0.308517456,-0.986618042,34.15242004,-14.51806641,-71.8240509
0,38:58.8,0:23,60,0,39:11.3,1540931951,-0.235262319,0.286414986,0.34736915,0.10723877,-0.364746094,-1.034683228,34.70484924,-13.927948,-71.77203369
0,38:58.8,0:23,60,0,39:11.3,1540931951,-0.290923185,-0.109271097,0.434705122,0.11668396,-0.334182739,-1.107192993,35.15385437,-14.09373474,-71.51960754
0,38:58.8,0:23,60,0,39:11.3,1540931951,-0.245035588,-0.307033445,0.281316896,0.033432007,-0.244232178,-1.11366272,35.15385437,-14.09373474,-71.51960754
0,38:58.8,0:23,60,0,39:11.4,1540931951,-0.099006742,-0.188669783,0.084389183,-0.05355835,-0.191680908,-1.089172363,35.0864563,-14.70059204,-70.99943542
0,38:58.8,0:23,60,0,39:11.4,1540931951,0.080892187,-0.033190444,-0.00862731,-0.061248779,-0.218460083,-1.092300415,34.25094604,-14.38119507,-71.42330933
0,38:58.8,0:23,60,0,39:11.4,1540931951,0.140985351,0.066972376,-0.045998385,-0.008590698,-0.265579224,-1.064941406,33.70536804,-14.35209656,-71.84220886
0,38:58.8,0:23,60,0,39:11.4,1540931951,0.084343111,0.083984383,-0.107002883,-0.008590698,-0.265579224,-1.064941406,34.16499329,-13.58906555,-72.10101318
0,38:58.8,0:23,60,0,39:11.4,1540931951,0.025917884,0.026361034,-0.162744709,0.011581421,-0.272659302,-1.101760864,35.13397217,-14.32304382,-71.60728455
0,38:58.8,0:23,60,0,39:11.5,1540931951,0.04516375,0.038348188,-0.231269708,0.026062012,-0.211395264,-1.179122925,35.65586853,-14.89109802,-71.13168335
0,38:58.8,0:23,60,0,39:11.5,1540931951,0.125574437,0.041266746,-0.342655089,0.032546997,-0.187789917,-1.195571899,35.65586853,-14.89109802,-71.13168335
0,38:58.8,0:23,60,0,39:11.5,1540931951,0.191034937,0.024855549,-0.452989853,0.060943604,-0.201156616,-1.197631836,35.21992493,-15.1151886,-70.92956543
0,38:58.8,0:23,60,0,39:11.5,1540931952,0.168988756,0.030552317,-0.47225303,0.107284546,-0.188613892,-1.203430176,34.50808716,-14.82022095,-71.34761047
0,38:58.8,0:23,60,0,39:11.5,1540931952,0.057657704,-0.02583719,-0.439099071,0.097061157,-0.132781982,-1.209793091,34.83392334,-14.6522522,-71.63586426
0,38:58.8,0:23,60,0,39:11.5,1540931952,-0.072555693,-0.088252365,-0.476624875,0.089553833,-0.085723877,-1.205505371,35.86846924,-15.08886719,-71.28359985
0,38:58.8,0:23,60,0,39:11.6,1540931952,-0.12299197,-0.200964533,-0.56991674,0.089553833,-0.085723877,-1.205505371,36.66075134,-15.16685486,-70.9311676
0,38:58.8,0:23,60,0,39:11.6,1540931952,-0.120956782,-0.225565483,-0.643837037,0.077804565,-0.090774536,-1.116882324,36.66075134,-15.16685486,-70.9311676
0,38:58.8,0:23,60,0,39:11.6,1540931952,-0.070781762,-0.157965666,-0.628773665,0.077804565,-0.090774536,-1.116882324,36.46055603,-15.35900879,-70.40280151
0,38:58.8,0:23,60,0,39:11.6,1540931952,0.001043427,-0.019405922,-0.559014024,0.074127197,-0.089431763,-1.089553833,35.75900269,-15.14491272,-71.29165649
0,38:58.8,0:23,60,0,39:11.6,1540931952,0.041049699,0.097861316,-0.497839883,0.092926025,-0.030136108,-1.011703491,35.80534363,-15.07678223,-71.44271851
0,38:58.8,0:23,60,0,39:11.6,1540931952,-0.00074462,0.144651725,-0.467787974,0.092926025,-0.030136108,-1.011703491,36.5375824,-14.83311462,-71.47187805
0,38:58.8,0:23,60,0,39:11.6,1540931952,-0.047696682,0.083506345,-0.481773298,0.084106445,-0.016525269,-0.985549927,37.74604797,-15.2256012,-70.79624939
0,38:58.8,0:23,60,0,39:11.7,1540931952,-0.014132863,-0.049768089,-0.503363012,0.084106445,-0.016525269,-0.985549927,37.74604797,-15.2256012,-70.79624939
0,38:58.8,0:23,60,0,39:11.7,1540931952,0.066809391,-0.180428099,-0.481055576,0.075317383,-0.036499023,-0.963485718,38.05342102,-15.59608459,-70.40304565
0,38:58.8,0:23,60,0,39:11.7,1540931952,0.15202735,-0.306772722,-0.466239878,0.026245117,-0.065170288,-0.825073242,37.10974121,-15.33262634,-70.67874146
0,38:58.8,0:23,60,0,39:11.7,1540931952,0.125818116,-0.286056258,-0.444790779,0.026245117,-0.065170288,-0.825073242,36.67300415,-15.24752808,-71.16769409
0,38:58.8,0:23,60,0,39:11.7,1540931952,0.04147181,-0.057172742,-0.408078837,-0.015823364,-0.100524902,-0.763549805,36.95819092,-14.83792114,-71.21498108
0,38:58.8,0:23,60,0,39:11.7,1540931952,-0.037125797,0.233101697,-0.319891187,-0.015686035,-0.144470215,-0.824356079,38.3792572,-15.42811584,-70.69129944
0,38:58.8,0:23,60,0,39:11.8,1540931952,-0.058896074,0.416575919,-0.167597255,-0.015686035,-0.144470215,-0.824356079,38.3792572,-15.42811584,-70.69129944
0,38:58.8,0:23,60,0,39:11.8,1540931952,-0.053286391,0.484097971,-0.026161563,-0.01071167,-0.119552612,-0.951263428,38.96546936,-15.69888306,-70.51338196
0,38:58.8,0:23,60,0,39:11.8,1540931952,-0.001338238,0.211631292,0.094497211,-0.022918701,-0.104049683,-0.98500061,38.55006409,-15.693573,-70.14549255
0,38:58.8,0:23,60,0,39:11.8,1540931952,-0.001338238,0.211631292,0.094497211,-0.022918701,-0.104049683,-0.98500061,37.86221313,-15.86927795,-70.50166321
0,38:58.8,0:23,60,0,39:11.8,1540931952,0.002612561,-0.047782969,0.041704037,-0.058563232,-0.084289551,-0.947738647,37.85423279,-15.16964722,-70.94442749
0,38:58.8,0:23,60,0,39:11.8,1540931952,-0.078061513,-0.353654477,-0.091440701,-0.067001343,-0.110290527,-0.902252197,38.5512085,-15.38420105,-70.60224915
0,38:58.8,0:23,60,0,39:11.9,1540931952,-0.078061513,-0.353654477,-0.091440701,-0.067001343,-0.110290527,-0.902252197,39.15423584,-15.73519897,-70.11418152
0,38:58.8,0:23,60,0,39:11.9,1540931952,-0.122641231,-0.385649162,-0.097894606,-0.058517456,-0.169845581,-0.861099243,39.15423584,-15.73519897,-70.11418152
0,38:58.8,0:23,60,0,39:11.9,1540931952,-0.103956759,-0.322812408,-0.168498468,-0.053619385,-0.165100098,-0.876968384,38.52770996,-16.23239136,-69.93258667
0,38:58.8,0:23,60,0,39:11.9,1540931952,-0.103956759,-0.322812408,-0.168498468,-0.031692505,-0.188278198,-0.909423828,37.41827393,-15.39373779,-70.74229431
0,38:58.8,0:23,60,0,39:11.9,1540931952,-0.42301997,-0.590443586,-0.095933188,0.008987427,-0.263656616,-0.967590332,37.1696167,-15.34503174,-70.91012573
0,38:58.8,0:23,60,0,39:11.9,1540931952,-0.554515679,-0.769947302,-0.061855378,0.029769897,-0.27571106,-1.010498047,37.12818909,-14.79415894,-71.36022949
0,38:58.8,0:23,60,0,39:12.0,1540931952,-0.554515679,-0.769947302,-0.061855378,-0.020507813,-0.245666504,-1.043579102,37.72010803,-14.75509644,-71.09240723
0,38:58.8,0:23,60,0,39:12.0,1540931952,-0.164202523,-0.133759929,-0.236785914,-0.073883057,-0.207550049,-1.062149048,37.72010803,-14.75509644,-71.09240723
0,38:58.8,0:23,60,0,39:12.0,1540931952,0.225020068,0.414382007,-0.300455171,-0.094863892,-0.201248169,-1.123580933,37.84263611,-15.08889771,-70.62980652
0,38:58.8,0:23,60,0,39:12.0,1540931952,0.225020068,0.414382007,-0.300455171,-0.062667847,-0.231079102,-1.206130981,37.22624207,-14.96661377,-70.42459106
0,38:58.8,0:23,60,0,39:12.0,1540931952,0.697095997,0.742438179,-0.163093849,-0.008178711,-0.258300781,-1.240692139,37.28236389,-15.28865051,-70.51158142
0,38:58.8,0:23,60,0,39:12.0,1540931952,0.669053444,0.682051534,-0.141744352,0.035446167,-0.250976563,-1.211807251,38.36831665,-15.3473053,-70.29858398
0,38:58.8,0:23,60,0,39:12.1,1540931952,0.546175724,0.617359889,-0.168566113,0.073669434,-0.228439331,-1.158554077,39.5872345,-16.12991333,-69.48083496
