SessionID,SessionDate,SessionDuration,SessionFrequency,RecordID,Timestamp,timeIntervalSince1970,GyroX,GyroY,GyroZ,AccX,AccY,AccZ,MagX,MagY,MagZ,WatchTimestamp,WatchtImeIntervalSince1970,WatchGyroX,WatchGyroY,WatchGyroZ,WatchAccX,WatchAccY,WatchAccZ
0,2018-10-30 16:38:58.8220,00:23,60,0,2018-10-30 16:38:58.8390,1540931938.839343,-0.17171077339227597,-0.44572688005994593,-0.10331120921911686,0.0711212158203125,-0.1383514404296875,-1.0485992431640625,40.74794006347656,28.289443969726562,-76.89674377441406,,,,,,,,,,
0,2018-10-30 16:38:58.8220,00:23,60,0,2018-10-30 16:38:58.8600,1540931938.859552,-0.13550270152766766,-0.0698371385295839,-0.06216350616462958,0.0242919921875,-0.1881866455078125,-1.009124755859375,40.659027099609375,28.4627685546875,-76.73902893066406,,,,,,,,,,
0,2018-10-30 16:38:58.8220,00:23,60,0,2018-10-30 16:38:58.8760,1540931938.875716,-0.05851257862623995,0.15753636480643826,-0.03513002425534424,0.0540924072265625,-0.1530609130859375,-1.0311126708984375,40.92057800292969,28.33343505859375,-76.72959899902344,,,,,,,,,,
0,2018-10-30 16:38:58.8220,00:23,60,0,2018-10-30 16:38:58.8930,1540931938.893001,0.010897655180604243,0.13529364338209646,-0.049095374695610754,0.0839691162109375,-0.1364288330078125,-1.0299072265625,40.95025634765625,28.172592163085938,-76.57786560058594,,,,,,,,,,
0,2018-10-30 16:38:58.8220,00:23,60,0,2018-10-30 16:38:58.9100,1540931938.9096541,0.029782130470356123,0.011873171087900267,-0.06531509099862935,0.0909423828125,-0.140869140625,-1.0036163330078125,40.95025634765625,28.172592163085938,-76.57786560058594,,,,,,,,,,
0,2018-10-30 16:38:58.8220,00:23,60,0,2018-10-30 16:38:58.9260,1540931938.926252,-0.10691633038675713,-0.048637843620335144,-0.02252235333880012,0.0767822265625,-0.1396484375,-0.988525390625,40.78399658203125,28.438461303710938,-76.5770263671875,,,,,,,,,,
0,2018-10-30 16:38:58.8220,00:23,60,0,2018-10-30 16:38:58.9430,1540931938.942838,-0.1735462240155586,-0.07387981706432419,-0.04181296069478908,0.0633544921875,-0.120880126953125,-0.9947967529296875,40.59783935546875,28.47503662109375,-76.66384887695312,,,,,,,,,,
0,2018-10-30 16:38:58.8220,00:23,60,0,2018-10-30 16:38:58.9600,1540931938.959507,-0.16795198782973814,-0.1624112811818283,-0.09546660191217946,0.058990478515625,-0.1065826416015625,-1.017730712890625,40.52622985839844,28.87744140625,-76.73081970214844,,,,,,,,,,
0,2018-10-30 16:38:58.8220,00:23,60,0,2018-10-30 16:38:58.9760,1540931938.97613,-0.11943292119402055,-0.16922098408916092,-0.13189598246337336,0.057373046875,-0.103240966796875,-1.015472412109375,40.550201416015625,28.406753540039062,-76.66896057128906,,,,,,,,,,
0,2018-10-30 16:38:58.8220,00:23,60,0,2018-10-30 16:38:58.9930,1540931938.9928908,-0.054374026292256815,-0.10048106792868966,-0.16716529004372874,0.04852294921875,-0.113800048828125,-0.9896392822265625,40.22747802734375,28.548355102539062,-76.60319519042969,,,,,,,,,,
0,2018-10-30 16:38:58.8220,00:23,60,0,2018-10-30 16:38:59.0100,1540931939.0095592,-0.0006364955005289379,-0.0013731258580448552,-0.19596924144569877,0.040618896484375,-0.127593994140625,-0.9623565673828125,40.22747802734375,28.548355102539062,-76.60319519042969,,,,,,,,,,
0,2018-10-30 16:38:58.8220,00:23,60,0,2018-10-30 16:38:59.0300,1540931939.029718,0.0018429074743348329,0.039661392850114066,-0.18521060327399666,0.0312957763671875,-0.16192626953125,-0.955780029296875,40.01683044433594,28.746307373046875,-76.21699523925781,,,,,,,,,,
0,2018-10-30 16:38:58.8220,00:23,60,0,2018-10-30 16:38:59.0430,1540931939.042824,0.0018429074743348329,0.039661392850114066,-0.18521060327399666,0.0312957763671875,-0.16192626953125,-0.955780029296875,39.87831115722656,28.851165771484375,-76.29869079589844,,,,,,,,,,
0,2018-10-30 16:38:58.8220,00:23,60,0,2018-10-30 16:38:59.0610,1540931939.060761,-0.21272664997280435,0.11174277723030773,-0.11439315514715459,0.0125274658203125,-0.20892333984375,-0.943023681640625,39.98518371582031,28.906967163085938,-76.60301208496094,,,,,,,,,,
0,2018-10-30 16:38:58.8220,00:23,60,0,2018-10-30 16:38:59.0760,1540931939.076377,-0.21272664997280435,0.11174277723030773,-0.11439315514715459,0.0125274658203125,-0.20892333984375,-0.943023681640625,39.94194030761719,29.148391723632812,-76.6744384765625,,,,,,,,,,
0,2018-10-30 16:38:58.8220,00:23,60,0,2018-10-30 16:38:59.0930,1540931939.09303,-0.29037430734737263,0.1609934142174701,-0.07255010073204761,0.0258941650390625,-0.1906280517578125,-1.009552001953125,40.11521911621094,29.192428588867188,-76.42918395996094,,,,,,,,,,
0,2018-10-30 16:38:58.8220,00:23,60,0,2018-10-30 16:38:59.1100,1540931939.109734,-0.15969379160551145,0.16176093724363094,-0.03724217731588608,0.033355712890625,-0.1685028076171875,-1.048309326171875,40.11521911621094,29.192428588867188,-76.42918395996094,,,,,,,,,,
0,2018-10-30 16:38:58.8220,00:23,60,0,2018-10-30 16:38:59.1270,1540931939.12711,-0.15969379160551145,0.16176093724363094,-0.03724217731588608,0.033355712890625,-0.1685028076171875,-1.048309326171875,40.07392883300781,29.434036254882812,-76.26634216308594,,,,,,,,,,
0,2018-10-30 16:38:58.8220,00:23,60,0,2018-10-30 16:38:59.1460,1540931939.146106,-0.031840221360769354,0.08260646332429583,-0.02452025678857756,0.03729248046875,-0.15850830078125,-1.0402984619140625,40.011444091796875,29.446197509765625,-76.34733581542969,,,,,,,,,,
0,2018-10-30 16:38:58.8220,00:23,60,0,2018-10-30 16:38:59.1610,1540931939.1613932,-0.061449246360270326,-0.031832764509717136,-0.006449643527953899,0.0251922607421875,-0.1760711669921875,-0.9950714111328125,39.82463073730469,29.482681274414062,-76.51225280761719,,,,,,,,,,
0,2018-10-30 16:38:58.8220,00:23,60,0,2018-10-30 16:38:59.1780,1540931939.1779618,-0.1821572890842208,0.024509337828108237,-0.011705391939225276,0.013214111328125,-0.1819000244140625,-0.96087646484375,39.79884338378906,29.6439208984375,-76.1954345703125,,,,,,,,,,
0,2018-10-30 16:38:58.8220,00:23,60,0,2018-10-30 16:38:59.1970,1540931939.197034,-0.2628705111895793,0.07608970813687194,-0.004126301792968772,0.0208892822265625,-0.188323974609375,-0.9668121337890625,39.84648132324219,29.712203979492188,-76.19029235839844,,,,,,,,,,
0,2018-10-30 16:38:58.8220,00:23,60,0,2018-10-30 16:38:59.2120,1540931939.2119632,-0.24621270488724267,0.05854267234655785,0.01619441627266284,0.0379638671875,-0.1862335205078125,-1.0013885498046875,39.83293151855469,29.792755126953125,-76.10997009277344,,,,,,,,,,
0,2018-10-30 16:38:58.8220,00:23,60,0,2018-10-30 16:38:59.2280,1540931939.227876,-0.24621270488724267,0.05854267234655785,0.01619441627266284,0.045745849609375,-0.176116943359375,-1.0192108154296875,39.83293151855469,29.792755126953125,-76.10997009277344,,,,,,,,,,
0,2018-10-30 16:38:58.8220,00:23,60,0,2018-10-30 16:38:59.2450,1540931939.244539,-0.12221645716537136,-0.09410279711794989,0.02347230289963138,0.0440521240234375,-0.1753387451171875,-1.006622314453125,39.94566345214844,29.849151611328125,-75.71144104003906,,,,,,,,,,
0,2018-10-30 16:38:58.8220,00:23,60,0,2018-10-30 16:38:59.2610,1540931939.2613,-0.11459502275778259,-0.17961024181766902,0.020152406284738602,0.03643798828125,-0.1907806396484375,-0.9783782958984375,39.714324951171875,30.126937866210938,-76.10397338867188,,,,,,,,,,
0,2018-10-30 16:38:58.8220,00:23,60,0,2018-10-30 16:38:59.2780,1540931939.278191,-0.11459502275778259,-0.17961024181766902,0.020152406284738602,0.01318359375,-0.2081451416015625,-0.9490966796875,39.680877685546875,29.978179931640625,-76.11134338378906,,,,,,,,,,
0,2018-10-30 16:38:58.8220,00:23,60,0,2018-10-30 16:38:59.2940,1540931939.294497,-0.15820162244674005,-0.11739001032182075,-0.017240505948845963,-0.01019287109375,-0.213531494140625,-0.9165496826171875,39.43418884277344,30.027084350585938,-76.04487609863281,,,,,,,,,,
0,2018-10-30 16:38:58.8220,00:23,60,0,2018-10-30 16:38:59.3120,1540931939.311579,-0.1409547249112779,0.02319932888789826,-0.05348053574653523,-0.0196075439453125,-0.21575927734375,-0.903167724609375,39.459991455078125,29.8658447265625,-76.36170959472656,,,,,,,,,,
0,2018-10-30 16:38:58.8220,00:23,60,0,2018-10-30 16:38:59.3280,1540931939.327721,-0.08902228470640572,0.15688468928769586,-0.06939105904699562,-0.0128326416015625,-0.2205047607421875,-0.9159393310546875,39.459991455078125,29.8658447265625,-76.36170959472656,,,,,,,,,,
0,2018-10-30 16:38:58.8220,00:23,60,0,2018-10-30 16:38:59.3440,1540931939.344396,-0.013049489341388268,0.16264084566779313,-0.0683313872492531,-0.001953125,-0.2334136962890625,-0.962677001953125,39.5423583984375,30.083023071289062,-76.19303894042969,,,,,,,,,,
0,2018-10-30 16:38:58.8220,00:23,60,0,2018-10-30 16:38:59.3610,1540931939.3610559,0.025748506683322108,0.03031209952728189,-0.06850396008789023,0.01153564453125,-0.2321624755859375,-0.9906158447265625,39.33876037597656,30.19976806640625,-76.66810607910156,,,,,,,,,,
0,2018-10-30 16:38:58.8220,00:23,60,0,2018-10-30 16:38:59.3780,1540931939.377787,0.010630273807160287,-0.1219554673785436,-0.09224710647038267,0.0051422119140625,-0.2282867431640625,-0.9827880859375,39.05926513671875,30.099960327148438,-76.53089904785156,,,,,,,,,,
0,2018-10-30 16:38:58.8220,00:23,60,0,2018-10-30 16:38:59.3940,1540931939.3935509,-0.04885648914583065,-0.17639234427252629,-0.13085095805162628,-0.0228729248046875,-0.236572265625,-0.95880126953125,38.914398193359375,29.894927978515625,-76.78059387207031,,,,,,,,,,
0,2018-10-30 16:38:58.8220,00:23,60,0,2018-10-30 16:38:59.4100,1540931939.409799,-0.14957830683706347,-0.1245770831556176,-0.13397537864250722,-0.0315704345703125,-0.2515106201171875,-0.94171142578125,38.944091796875,29.734085083007812,-76.62886047363281,,,,,,,,,,
0,2018-10-30 16:38:58.8220,00:23,60,0,2018-10-30 16:38:59.4260,1540931939.426389,-0.23058048192069555,0.012354670612986594,-0.10166111460770377,-0.0280914306640625,-0.27056884765625,-0.9590606689453125,38.944091796875,29.734085083007812,-76.62886047363281,,,,,,,,,,
0,2018-10-30 16:38:58.8220,00:23,60,0,2018-10-30 16:38:59.4430,1540931939.443101,-0.21682738541930835,0.14281893767433335,-0.03189747932420606,-0.016815185546875,-0.276397705078125,-1.0198822021484375,38.87440490722656,30.13665771484375,-76.46153259277344,,,,,,,,,,
0,2018-10-30 16:38:58.8220,00:23,60,0,2018-10-30 16:38:59.4600,1540931939.4596229,-0.13738395852169966,0.19161337516676516,0.017403225091449807,0.0079498291015625,-0.256805419921875,-1.08612060546875,38.86805725097656,29.826766967773438,-76.62954711914062,,,,,,,,,,
0,2018-10-30 16:38:58.8220,00:23,60,0,2018-10-30 16:38:59.4760,1540931939.4763799,-0.07658106135799155,0.16595568227661475,0.06661657782335108,0.0243377685546875,-0.23065185546875,-1.130859375,38.67274475097656,30.25360107421875,-76.70233154296875,,,,,,,,,,
0,2018-10-30 16:38:58.8220,00:23,60,0,2018-10-30 16:38:59.4930,1540931939.492896,-0.05421956294903222,0.09090007959102059,0.11899083645306739,0.0308380126953125,-0.223541259765625,-1.162261962890625,38.72822570800781,29.931488037109375,-76.86741638183594,,,,,,,,,,
0,2018-10-30 16:38:58.8220,00:23,60,0,2018-10-30 16:38:59.5100,1540931939.509604,-0.10763351966831547,0.027447869774901667,0.1564055866075906,0.021148681640625,-0.2218170166015625,-1.1710357666015625,38.92793273925781,29.814361572265625,-76.86091613769531,,,,,,,,,,
0,2018-10-30 16:38:58.8220,00:23,60,0,2018-10-30 16:38:59.5270,1540931939.527272,-0.18991880576514775,0.03347007594789785,0.20033815721397374,0.013519287109375,-0.2076873779296875,-1.1682281494140625,38.942138671875,29.73388671875,-76.86314392089844,,,,,,,,,,
0,2018-10-30 16:38:58.8220,00:23,60,0,2018-10-30 16:38:59.5430,1540931939.542993,-0.22204265378201055,0.10494186275457239,0.2561188651940104,0.0103302001953125,-0.1900177001953125,-1.189697265625,38.942138671875,29.73388671875,-76.86314392089844,,,,,,,,,,
0,2018-10-30 16:38:58.8220,00:23,60,0,2018-10-30 16:38:59.5600,1540931939.5596209,-0.1812768480278406,0.18659438177640184,0.295831657053163,0.01446533203125,-0.1610870361328125,-1.22808837890625,39.093536376953125,29.54840087890625,-76.93988037109375,,,,,,,,,,
0,2018-10-30 16:38:58.8220,00:23,60,0,2018-10-30 16:38:59.5760,1540931939.576396,-0.08415562413039492,0.19438359533266558,0.2786840954263608,0.019927978515625,-0.1171112060546875,-1.2566375732421875,39.20433044433594,29.6046142578125,-76.77565002441406,,,,,,,,,,
0,2018-10-30 16:38:58.8220,00:23,60,0,2018-10-30 16:38:59.5930,1540931939.593081,0.03201146261886145,0.09285883457277387,0.23355470022609606,0.0239105224609375,-0.0897979736328125,-1.260833740234375,39.17024230957031,29.455764770507812,-76.861083984375,,,,,,,,,,
0,2018-10-30 16:38:58.8220,00:23,60,0,2018-10-30 16:38:59.6100,1540931939.609747,0.11647148606185243,-0.01487695048140064,0.19485044747175648,0.0269927978515625,-0.0971221923828125,-1.2257080078125,39.305511474609375,29.350616455078125,-77.16989135742188,,,,,,,,,,
0,2018-10-30 16:38:58.8220,00:23,60,0,2018-10-30 16:38:59.6260,1540931939.626405,0.09272008387998074,0.040457411699938745,0.20884562531623188,0.0457305908203125,-0.1062469482421875,-1.138458251953125,39.43894958496094,28.935989379882812,-77.10000610351562,,,,,,,,,,
0,2018-10-30 16:38:58.8220,00:23,60,0,2018-10-30 16:38:59.6430,1540931939.6429338,-0.02803163468584704,0.22829788655038866,0.31833430299989657,0.075927734375,-0.1169586181640625,-1.0749053955078125,39.43894958496094,28.935989379882812,-77.10000610351562,,,,,,,,,,
0,2018-10-30 16:38:58.8220,00:23,60,0,2018-10-30 16:38:59.6600,1540931939.6597672,-0.16022775540407233,0.43884633706761716,0.4567670143588694,0.0959930419921875,-0.1244659423828125,-1.0778656005859375,39.87965393066406,28.46014404296875,-77.24986267089844,,,,,,,,,,
0,2018-10-30 16:38:58.8220,00:23,60,0,2018-10-30 16:38:59.6760,1540931939.676352,-0.17542774732569957,0.5187571487365348,0.5254043988173726,0.097991943359375,-0.094818115234375,-1.1414031982421875,40.03675842285156,28.58447265625,-77.2366943359375,,,,,,,,,,
0,2018-10-30 16:38:58.8220,00:23,60,0,2018-10-30 16:38:59.6930,1540931939.693097,-0.03150040200567525,0.3391628858854063,0.4619673690194671,0.08306884765625,-0.0345306396484375,-1.2094268798828125,40.45166015625,28.2698974609375,-77.06973266601562,,,,,,,,,,
0,2018-10-30 16:38:58.8220,00:23,60,0,2018-10-30 16:38:59.7100,1540931939.709731,0.22947500375220367,0.027960261968632914,0.30089139680820454,0.0860443115234375,0.0265655517578125,-1.2103424072265625,40.47746276855469,28.108642578125,-77.38658142089844,,,,,,,,,,
0,2018-10-30 16:38:58.8220,00:23,60,0,2018-10-30 16:38:59.7270,1540931939.726503,0.44676444762064077,-0.31872179293850306,0.19118354096682635,0.1239471435546875,0.0456695556640625,-1.1484375,40.21299743652344,27.228012084960938,-77.66790771484375,,,,,,,,,,
0,2018-10-30 16:38:58.8220,00:23,60,0,2018-10-30 16:38:59.7440,1540931939.7442222,0.5508967094038291,-0.46343397183177376,0.15564152569084688,0.117156982421875,-0.0516510009765625,-0.920440673828125,39.97808837890625,26.49578857421875,-78.41047668457031,,,,,,,,,,
0,2018-10-30 16:38:58.8220,00:23,60,0,2018-10-30 16:38:59.7600,1540931939.759726,0.5296830334246939,-0.35633095385260205,0.20075494192457116,0.117156982421875,-0.0516510009765625,-0.920440673828125,39.97808837890625,26.49578857421875,-78.41047668457031,,,,,,,,,,
0,2018-10-30 16:38:58.8220,00:23,60,0,2018-10-30 16:38:59.7760,1540931939.776469,0.4427310901497158,-0.17083246286476786,0.2738232938047482,0.108001708984375,-0.0847625732421875,-0.85162353515625,39.632354736328125,26.0985107421875,-78.20989990234375,,,,,,,,,,
0,2018-10-30 16:38:58.8220,00:23,60,0,2018-10-30 16:38:59.7930,1540931939.793128,0.3016227008435403,0.07166087124407015,0.28914845429760916,0.094818115234375,-0.0596160888671875,-0.809722900390625,39.72846984863281,25.53472900390625,-78.615966796875,,,,,,,,,,
0,2018-10-30 16:38:58.8220,00:23,60,0,2018-10-30 16:38:59.8100,1540931939.809711,0.16953284025280918,0.25475905514141595,0.2594219838940357,0.094818115234375,-0.0596160888671875,-0.809722900390625,40.03570556640625,25.473480224609375,-78.83570861816406,,,,,,,,,,
0,2018-10-30 16:38:58.8220,00:23,60,0,2018-10-30 16:38:59.8270,1540931939.826517,0.11743315353148004,0.3158935158608389,0.2434470120951954,0.121246337890625,-0.0461578369140625,-0.8583831787109375,40.25938415527344,24.885696411132812,-78.76736450195312,,,,,,,,,,
0,2018-10-30 16:38:58.8220,00:23,60,0,2018-10-30 16:38:59.8430,1540931939.8432221,0.22403869301902493,-0.003110039520994534,0.23981525931665432,0.1603546142578125,-0.0485992431640625,-0.9561309814453125,40.32972717285156,24.483169555664062,-78.85658264160156,,,,,,,,,,
0,2018-10-30 16:38:58.8220,00:23,60,0,2018-10-30 16:38:59.8600,1540931939.859826,0.22403869301902493,-0.003110039520994534,0.23981525931665432,0.1603546142578125,-0.0485992431640625,-0.9561309814453125,40.32972717285156,24.483169555664062,-78.85658264160156,,,,,,,,,,
0,2018-10-30 16:38:58.8220,00:23,60,0,2018-10-30 16:38:59.8760,1540931939.876495,0.28818066155747435,-0.2533675534718496,0.18701888965416044,0.1237640380859375,-0.0513763427734375,-0.87451171875,40.07160949707031,23.91241455078125,-78.96994018554688,,,,,,,,,,
0,2018-10-30 16:38:58.8220,00:23,60,0,2018-10-30 16:38:59.8930,1540931939.8931441,0.2828809709882167,-0.277816703859322,0.09275417234193375,0.093414306640625,-0.0785980224609375,-0.8130035400390625,39.60337829589844,23.84893798828125,-79.23194885253906,,,,,,,,,,
0,2018-10-30 16:38:58.8220,00:23,60,0,2018-10-30 16:38:59.9100,1540931939.909801,0.2828809709882167,-0.277816703859322,0.09275417234193375,0.093414306640625,-0.0785980224609375,-0.8130035400390625,39.53517150878906,23.551254272460938,-79.40284729003906,,,,,,,,,,
0,2018-10-30 16:38:58.8220,00:23,60,0,2018-10-30 16:38:59.9270,1540931939.926549,0.21290801124303874,-0.09972686070797922,0.0844238044521659,0.0685272216796875,-0.1487274169921875,-0.7861175537109375,39.48052978515625,23.17303466796875,-79.65409851074219,,,,,,,,,,
0,2018-10-30 16:38:58.8220,00:23,60,0,2018-10-30 16:38:59.9430,1540931939.9432878,0.11572020831834108,0.09386098209097068,0.05256014727380384,0.0890655517578125,-0.1638336181640625,-0.839080810546875,39.37823486328125,22.726516723632812,-79.91044616699219,,,,,,,,,,
0,2018-10-30 16:38:58.8220,00:23,60,0,2018-10-30 16:38:59.9610,1540931939.960868,0.11572020831834108,0.09386098209097068,0.05256014727380384,0.0890655517578125,-0.1638336181640625,-0.839080810546875,39.37823486328125,22.726516723632812,-79.91044616699219,,,,,,,,,,
0,2018-10-30 16:38:58.8220,00:23,60,0,2018-10-30 16:38:59.9770,1540931939.976501,0.2008031451403016,-0.06248894444983726,-0.0022671490359844554,0.117431640625,-0.18597412109375,-0.9150238037109375,39.22308349609375,22.60235595703125,-79.68936157226562,,,,,,,,,,
0,2018-10-30 16:38:58.8220,00:23,60,0,2018-10-30 16:38:59.9930,1540931939.993363,0.19721986189359997,-0.10891663068151565,-0.014103035868623614,0.1157684326171875,-0.219146728515625,-0.9218597412109375,39.16973876953125,22.224258422851562,-79.78437805175781,,,,,,,,,,
0,2018-10-30 16:38:58.8220,00:23,60,0,2018-10-30 16:39:00.0100,1540931940.010073,0.19721986189359997,-0.10891663068151565,-0.014103035868623614,0.103607177734375,-0.246368408203125,-0.917724609375,39.02549743652344,22.019287109375,-79.95596313476562,,,,,,,,,,
0,2018-10-30 16:38:58.8220,00:23,60,0,2018-10-30 16:39:00.0290,1540931940.029273,0.06993327864493576,-0.09867358049685288,-0.10615386736666745,0.0796051025390625,-0.258148193359375,-0.9268341064453125,38.69708251953125,21.85107421875,-79.9801025390625,,,,,,,,,,
0,2018-10-30 16:38:58.8220,00:23,60,0,2018-10-30 16:39:00.0440,1540931940.0440822,0.01186784476572011,-0.013450827717663209,-0.18099508558451022,0.067657470703125,-0.2575225830078125,-0.9520111083984375,38.59480285644531,21.404571533203125,-80.23646545410156,,,,,,,,,,
0,2018-10-30 16:38:58.8220,00:23,60,0,2018-10-30 16:39:00.0600,1540931940.059938,0.01186784476572011,-0.013450827717663209,-0.18099508558451022,0.07110595703125,-0.2500152587890625,-1.002105712890625,38.59480285644531,21.404571533203125,-80.23646545410156,,,,,,,,,,
0,2018-10-30 16:38:58.8220,00:23,60,0,2018-10-30 16:39:00.0770,1540931940.076747,0.016489494521443618,0.34155973086647756,-0.25230601746134396,0.088104248046875,-0.2490386962890625,-1.0761566162109375,38.5755615234375,21.175308227539062,-80.24604797363281,,,,,,,,,,
0,2018-10-30 16:38:58.8220,00:23,60,0,2018-10-30 16:39:00.0940,1540931940.093515,0.06522054877993154,0.4783964097841659,-0.23715689191653724,0.1011199951171875,-0.2412261962890625,-1.1611785888671875,38.589752197265625,21.094818115234375,-80.24827575683594,,,,,,,,,,
0,2018-10-30 16:38:58.8220,00:23,60,0,2018-10-30 16:39:00.1100,1540931940.1099439,0.1854782509635496,0.4837317867120307,-0.2371792624696939,0.115997314453125,-0.2192840576171875,-1.249481201171875,38.725006103515625,20.989639282226562,-80.55706787109375,,,,,,,,,,
0,2018-10-30 16:38:58.8220,00:23,60,0,2018-10-30 16:39:00.1270,1540931940.126651,0.37262310813727084,0.5285860773716903,-0.27250742591014004,0.112396240234375,-0.1822357177734375,-1.293060302734375,38.8455810546875,20.6556396484375,-80.32876586914062,,,,,,,,,,
0,2018-10-30 16:38:58.8220,00:23,60,0,2018-10-30 16:39:00.1430,1540931940.143238,0.6636996910640973,0.4358129965860169,-0.22129057709017216,0.1475830078125,-0.173370361328125,-1.34893798828125,39.25871276855469,19.640457153320312,-80.89051818847656,,,,,,,,,,
0,2018-10-30 16:38:58.8220,00:23,60,0,2018-10-30 16:39:00.1600,1540931940.160002,0.9791612421961254,0.0716323754204063,0.022340725752456714,0.2825775146484375,-0.212890625,-1.403472900390625,39.1688232421875,18.804000854492188,-80.77041625976562,,,,,,,,,,
0,2018-10-30 16:38:58.8220,00:23,60,0,2018-10-30 16:39:00.1770,1540931940.176609,1.1558502626140865,-0.25754498795774783,0.23071017786578243,0.29339599609375,-0.196197509765625,-1.301361083984375,39.1688232421875,18.804000854492188,-80.77041625976562,,,,,,,,,,
0,2018-10-30 16:38:58.8220,00:23,60,0,2018-10-30 16:39:00.1930,1540931940.193373,1.0670596729225177,-0.36741103556787674,0.32911531172475533,0.1468505859375,-0.193115234375,-1.1530303955078125,39.05577087402344,17.737930297851562,-81.12850952148438,,,,,,,,,,
0,2018-10-30 16:38:58.8220,00:23,60,0,2018-10-30 16:39:00.2120,1540931940.2115068,0.512579680271987,-0.2260717501951914,0.3958165780707709,0.0919036865234375,-0.14776611328125,-0.9670867919921875,38.67399597167969,17.191604614257812,-81.2476806640625,,,,,,,,,,
0,2018-10-30 16:38:58.8220,00:23,60,0,2018-10-30 16:39:00.2270,1540931940.227419,-0.3284529835616526,-0.09220263168017835,0.31372783326238646,0.0512847900390625,-0.086517333984375,-0.8886566162109375,38.39451599121094,17.091812133789062,-81.1104736328125,,,,,,,,,,
0,2018-10-30 16:38:58.8220,00:23,60,0,2018-10-30 16:39:00.2450,1540931940.244601,-0.8742590605417953,-0.22855381633114527,0.018133197546240525,-0.0325164794921875,-0.009063720703125,-0.988006591796875,38.29203796386719,17.345687866210938,-80.87242126464844,,,,,,,,,,
0,2018-10-30 16:38:58.8220,00:23,60,0,2018-10-30 16:39:00.2610,1540931940.261269,-0.9223815824912001,-0.4746237757839597,-0.27129142655640986,-0.0454254150390625,0.0612945556640625,-1.1274566650390625,37.540863037109375,17.8824462890625,-80.89329528808594,,,,,,,,,,
0,2018-10-30 16:38:58.8220,00:23,60,0,2018-10-30 16:39:00.2770,1540931940.276761,-0.5744076281392666,-0.5172250321614122,-0.46097028150734143,-0.0501556396484375,0.0811004638671875,-1.161376953125,37.540863037109375,17.8824462890625,-80.89329528808594,,,,,,,,,,
0,2018-10-30 16:38:58.8220,00:23,60,0,2018-10-30 16:39:00.2930,1540931940.293381,-0.06807865326180458,-0.410272216467721,-0.562692116187899,-0.0523223876953125,0.0429229736328125,-1.11932373046875,37.16986083984375,17.955718994140625,-80.91075134277344,,,,,,,,,,
0,2018-10-30 16:38:58.8220,00:23,60,0,2018-10-30 16:39:00.3100,1540931940.3101149,0.29273413438929186,-0.16931312946287766,-0.5571274410901784,-0.0422821044921875,-0.0226593017578125,-1.012359619140625,36.68870544433594,17.972854614257812,-81.01434326171875,,,,,,,,,,
0,2018-10-30 16:38:58.8220,00:23,60,0,2018-10-30 16:39:00.3270,1540931940.32689,0.387955725481184,0.11052438103159648,-0.44008124486508693,-0.0247802734375,-0.0977020263671875,-0.909912109375,36.46844482421875,17.860595703125,-81.18663024902344,,,,,,,,,,
0,2018-10-30 16:38:58.8220,00:23,60,0,2018-10-30 16:39:00.3430,1540931940.343336,0.29393708425368065,0.22141681092584192,-0.35639460340265494,-0.037567138671875,-0.1470489501953125,-0.8503570556640625,36.597503662109375,17.13629150390625,-81.05044555664062,,,,,,,,,,
0,2018-10-30 16:38:58.8220,00:23,60,0,2018-10-30 16:39:00.3600,1540931940.3601298,0.129530829099274,0.11599691075560031,-0.376831435291814,-0.0486907958984375,-0.14288330078125,-0.825164794921875,36.45018005371094,16.621749877929688,-80.99955749511719,,,,,,,,,,
0,2018-10-30 16:38:58.8220,00:23,60,0,2018-10-30 16:39:00.3770,1540931940.376828,0.0015398397422838155,-0.15836221106047182,-0.432823864578512,-0.035064697265625,-0.1179656982421875,-0.813629150390625,36.45018005371094,16.621749877929688,-80.99955749511719,,,,,,,,,,
0,2018-10-30 16:38:58.8220,00:23,60,0,2018-10-30 16:39:00.3930,1540931940.393465,-0.10112741712525189,-0.31304712928776224,-0.4533363302426293,-0.026824951171875,-0.122528076171875,-0.7839202880859375,36.063690185546875,16.775390625,-81.17098999023438,,,,,,,,,,
0,2018-10-30 16:38:58.8220,00:23,60,0,2018-10-30 16:39:00.4100,1540931940.410083,-0.17156323426788558,-0.28117574894223896,-0.4104455882546852,-0.0248565673828125,-0.1606903076171875,-0.743682861328125,35.64436340332031,16.780303955078125,-81.27168273925781,,,,,,,,,,
0,2018-10-30 16:38:58.8220,00:23,60,0,2018-10-30 16:39:00.4270,1540931940.426724,-0.19021548191058257,-0.23257705378992796,-0.3472003060552654,-0.02911376953125,-0.202301025390625,-0.7503204345703125,35.58251953125,16.792510986328125,-81.27458190917969,,,,,,,,,,
0,2018-10-30 16:38:58.8220,00:23,60,0,2018-10-30 16:39:00.4430,1540931940.443394,-0.22963266288873635,-0.1534382925210243,-0.29783355524457555,-0.035614013671875,-0.2056732177734375,-0.7597198486328125,34.91194152832031,17.237030029296875,-80.74809265136719,,,,,,,,,,
0,2018-10-30 16:38:58.8220,00:23,60,0,2018-10-30 16:39:00.4600,1540931940.460194,-0.3751432574768128,-0.031115575228158797,-0.24410454656833594,-0.0330657958984375,-0.2181549072265625,-0.7587432861328125,34.849456787109375,17.249176025390625,-80.8291015625,,,,,,,,,,
0,2018-10-30 16:38:58.8220,00:23,60,0,2018-10-30 16:39:00.4780,1540931940.477999,-0.5290590547812883,0.0987819711532191,-0.17108865896163347,-0.024017333984375,-0.2474212646484375,-0.7894134521484375,34.80946350097656,17.490921020507812,-80.51002502441406,,,,,,,,,,
0,2018-10-30 16:38:58.8220,00:23,60,0,2018-10-30 16:39:00.4930,1540931940.493398,-0.6103219533356392,0.11643073969717421,-0.06181942575179134,0.005950927734375,-0.2559814453125,-0.8746795654296875,34.80946350097656,17.490921020507812,-80.51002502441406,,,,,,,,,,
0,2018-10-30 16:38:58.8220,00:23,60,0,2018-10-30 16:39:00.5100,1540931940.510225,-0.6035407462519704,0.07702501031170776,0.038791338121985174,0.0173187255859375,-0.2384185791015625,-0.9843292236328125,34.93949890136719,17.776382446289062,-80.33619689941406,,,,,,,,,,
0,2018-10-30 16:38:58.8220,00:23,60,0,2018-10-30 16:39:00.5270,1540931940.526812,-0.46187389206520535,-0.09750365382998107,0.06638435017629617,0.032501220703125,-0.1743927001953125,-1.149932861328125,34.80732727050781,18.191116333007812,-80.24989318847656,,,,,,,,,,
0,2018-10-30 16:38:58.8220,00:23,60,0,2018-10-30 16:39:00.5430,1540931940.543428,-0.24287736193802745,-0.34948742879942546,0.07351682820774638,0.032501220703125,-0.1743927001953125,-1.149932861328125,34.42082214355469,18.344741821289062,-80.42132568359375,,,,,,,,,,
0,2018-10-30 16:38:58.8220,00:23,60,0,2018-10-30 16:39:00.5600,1540931940.5601559,-0.07015911470537448,-0.46818611648091113,0.13008450028990146,0.05255126953125,-0.179443359375,-1.1644439697265625,34.07185363769531,17.947158813476562,-80.61123657226562,,,,,,,,,,
0,2018-10-30 16:38:58.8220,00:23,60,0,2018-10-30 16:39:00.5770,1540931940.576867,0.027117904115840853,-0.4250394447122104,0.19650773261811277,-0.0017852783203125,-0.1741943359375,-1.144744873046875,33.702789306640625,18.020599365234375,-80.39437866210938,,,,,,,,,,
0,2018-10-30 16:38:58.8220,00:23,60,0,2018-10-30 16:39:00.5940,1540931940.593601,0.11273427210414423,-0.29496506443445125,0.19129326320373763,-0.0017852783203125,-0.1741943359375,-1.144744873046875,33.702789306640625,18.020599365234375,-80.39437866210938,,,,,,,,,,
0,2018-10-30 16:38:58.8220,00:23,60,0,2018-10-30 16:39:00.6100,1540931940.610137,0.2231875467346356,-0.21699063719413023,0.1720873443704132,-0.021759033203125,-0.1558837890625,-1.161956787109375,33.71189880371094,17.630355834960938,-80.40841674804688,,,,,,,,,,
0,2018-10-30 16:38:58.8220,00:23,60,0,2018-10-30 16:39:00.6270,1540931940.6270351,0.2713409613526853,-0.11307222724647528,0.3060616577484844,0.0286712646484375,-0.155914306640625,-1.1838531494140625,33.431121826171875,17.530410766601562,-80.42741394042969,,,,,,,,,,
0,2018-10-30 16:38:58.8220,00:23,60,0,2018-10-30 16:39:00.6440,1540931940.6435518,0.2713409613526853,-0.11307222724647528,0.3060616577484844,0.0286712646484375,-0.155914306640625,-1.1838531494140625,33.515655517578125,17.047409057617188,-80.51887512207031,,,,,,,,,,
0,2018-10-30 16:38:58.8220,00:23,60,0,2018-10-30 16:39:00.6600,1540931940.660242,0.2352103874757983,-0.13236576407966333,0.3488810270192144,0.0489654541015625,-0.110748291015625,-1.1853485107421875,33.33799743652344,16.69366455078125,-80.69783020019531,,,,,,,,,,
0,2018-10-30 16:38:58.8220,00:23,60,0,2018-10-30 16:39:00.6770,1540931940.67703,0.05901458449171989,-0.25396090576271924,0.34449000701389176,0.056182861328125,-0.1188507080078125,-1.154083251953125,33.18281555175781,16.569503784179688,-80.47669982910156,,,,,,,,,,
0,2018-10-30 16:38:58.8220,00:23,60,0,2018-10-30 16:39:00.6950,1540931940.694634,0.05901458449171989,-0.25396090576271924,0.34449000701389176,0.056182861328125,-0.1188507080078125,-1.154083251953125,33.18281555175781,16.569503784179688,-80.47669982910156,,,,,,,,,,
0,2018-10-30 16:38:58.8220,00:23,60,0,2018-10-30 16:39:00.7100,1540931940.71017,-0.19450317126561015,-0.03599821477071007,0.5429293303706391,0.0828094482421875,-0.177093505859375,-1.131317138671875,33.17582702636719,16.259567260742188,-80.72280883789062,,,,,,,,,,
0,2018-10-30 16:38:58.8220,00:23,60,0,2018-10-30 16:39:00.7270,1540931940.726897,-0.385064331485685,0.27837516873991164,0.8239287780487147,0.05609130859375,-0.095458984375,-1.1810150146484375,33.32640075683594,16.774398803710938,-80.38320922851562,,,,,,,,,,
0,2018-10-30 16:38:58.8220,00:23,60,0,2018-10-30 16:39:00.7440,1540931940.743536,-0.385064331485685,0.27837516873991164,0.8239287780487147,0.05609130859375,-0.095458984375,-1.1810150146484375,33.800323486328125,17.147720336914062,-80.03129577636719,,,,,,,,,,
0,2018-10-30 16:38:58.8220,00:23,60,0,2018-10-30 16:39:00.7600,1540931940.760257,-0.1351743337652609,0.09658166746059564,0.5152361834593411,0.031585693359375,0.043609619140625,-1.0816497802734375,34.00135803222656,17.030731201171875,-79.86860656738281,,,,,,,,,,
0,2018-10-30 16:38:58.8220,00:23,60,0,2018-10-30 16:39:00.7770,1540931940.776921,-0.13184138766102674,-0.013461746678132533,0.4369267305538881,0.043792724609375,0.0010986328125,-1.011566162109375,34.01359558105469,16.950042724609375,-80.10513305664062,,,,,,,,,,
0,2018-10-30 16:38:58.8220,00:23,60,0,2018-10-30 16:39:00.7940,1540931940.793567,-0.13184138766102674,-0.013461746678132533,0.4369267305538881,0.0399932861328125,-0.0389404296875,-0.9855499267578125,34.01359558105469,16.950042724609375,-80.10513305664062,,,,,,,,,,
0,2018-10-30 16:38:58.8220,00:23,60,0,2018-10-30 16:39:00.8100,1540931940.810216,-0.13713362137923218,-0.26703223302504614,0.29740318841241875,0.0280609130859375,-0.0493621826171875,-0.95880126953125,33.82872009277344,16.986740112304688,-80.03575134277344,,,,,,,,,,
0,2018-10-30 16:38:58.8220,00:23,60,0,2018-10-30 16:39:00.8270,1540931940.8272219,-0.07885300408393815,-0.25218777310894447,0.23208490162048132,0.0247344970703125,-0.0377655029296875,-0.905914306640625,33.85124206542969,17.216323852539062,-79.63566589355469,,,,,,,,,,
0,2018-10-30 16:38:58.8220,00:23,60,0,2018-10-30 16:39:00.8440,1540931940.8436341,-0.07885300408393815,-0.25218777310894447,0.23208490162048132,0.041717529296875,-0.041107177734375,-0.8589324951171875,33.69282531738281,17.091842651367188,-79.8050537109375,,,,,,,,,,
0,2018-10-30 16:38:58.8220,00:23,60,0,2018-10-30 16:39:00.8600,1540931940.860433,0.07085766185930226,0.0804983050053891,0.25601819770480544,0.0543060302734375,-0.04974365234375,-0.83087158203125,33.541412353515625,17.277328491210938,-79.72833251953125,,,,,,,,,,
0,2018-10-30 16:38:58.8220,00:23,60,0,2018-10-30 16:39:00.8770,1540931940.8769732,0.07085766185930226,0.0804983050053891,0.25601819770480544,0.0543060302734375,-0.04974365234375,-0.83087158203125,33.93511962890625,16.733230590820312,-79.80522155761719,,,,,,,,,,
0,2018-10-30 16:38:58.8220,00:23,60,0,2018-10-30 16:39:00.8940,1540931940.893921,0.25682300498622734,0.2248248581728163,0.23259250012425042,0.0204925537109375,-0.0636138916015625,-0.8277435302734375,34.172332763671875,16.064895629882812,-79.81719970703125,,,,,,,,,,
0,2018-10-30 16:38:58.8220,00:23,60,0,2018-10-30 16:39:00.9110,1540931940.911367,0.31497152949145346,0.1163628290893772,0.16819300390839032,0.01116943359375,-0.0665130615234375,-0.8074493408203125,34.172332763671875,16.064895629882812,-79.81719970703125,,,,,,,,,,
0,2018-10-30 16:38:58.8220,00:23,60,0,2018-10-30 16:39:00.9270,1540931940.927038,0.31497152949145346,0.1163628290893772,0.16819300390839032,0.0157928466796875,-0.0761871337890625,-0.7613983154296875,34.1767578125,16.374588012695312,-79.88349914550781,,,,,,,,,,
0,2018-10-30 16:38:58.8220,00:23,60,0,2018-10-30 16:39:00.9440,1540931940.943754,0.2249955667986904,-0.05325656389885956,0.065202705600628,0.0253753662109375,-0.1068878173828125,-0.705657958984375,33.9906005859375,16.4111328125,-79.97030639648438,,,,,,,,,,
0,2018-10-30 16:38:58.8220,00:23,60,0,2018-10-30 16:39:00.9600,1540931940.9604058,0.11254678556340265,0.09918810321945619,0.08040988805719847,0.0102081298828125,-0.1541900634765625,-0.6868133544921875,33.98681640625,16.101531982421875,-79.825927734375,,,,,,,,,,
0,2018-10-30 16:38:58.8220,00:23,60,0,2018-10-30 16:39:00.9770,1540931940.9769979,0.11254678556340265,0.09918810321945619,0.08040988805719847,-0.0240936279296875,-0.1753387451171875,-0.7346038818359375,34.24461364746094,15.662551879882812,-79.672119140625,,,,,,,,,,
0,2018-10-30 16:38:58.8220,00:23,60,0,2018-10-30 16:39:00.9940,1540931940.99372,0.016447949208438385,0.4042055355045205,0.0401165270804086,-0.0313262939453125,-0.1614532470703125,-0.7866668701171875,34.42442321777344,15.316085815429688,-79.75332641601562,,,,,,,,,,
0,2018-10-30 16:38:58.8220,00:23,60,0,2018-10-30 16:39:01.0110,1540931941.0105228,-0.002254898494970091,0.6467683781178096,0.014719557660976957,-0.0197601318359375,-0.170989990234375,-0.8470458984375,34.42442321777344,15.316085815429688,-79.75332641601562,,,,,,,,,,
0,2018-10-30 16:38:58.8220,00:23,60,0,2018-10-30 16:39:01.0270,1540931941.02706,-0.006683735387771864,1.0504868214589547,-0.043678771354498595,-0.0406341552734375,-0.16314697265625,-0.9087982177734375,35.048492431640625,15.503814697265625,-79.63430786132812,,,,,,,,,,
0,2018-10-30 16:38:58.8220,00:23,60,0,2018-10-30 16:39:01.0440,1540931941.0438561,0.04275199129515102,1.223656740812485,-0.19018512187415565,-0.0365447998046875,-0.12322998046875,-0.9888916015625,35.700286865234375,15.530471801757812,-79.59786987304688,,,,,,,,,,
0,2018-10-30 16:38:58.8220,00:23,60,0,2018-10-30 16:39:01.0610,1540931941.060504,0.07644737067126957,0.96116626271046,-0.3565005972140401,0.0252838134765625,-0.11822509765625,-1.08087158203125,36.44801330566406,15.693771362304688,-79.47305297851562,,,,,,,,,,
0,2018-10-30 16:38:58.8220,00:23,60,0,2018-10-30 16:39:01.0770,1540931941.0771298,-0.018398981023030433,0.6184547146725231,-0.4393568650485854,0.0983734130859375,-0.1664276123046875,-1.123748779296875,37.004547119140625,15.5838623046875,-79.44686889648438,,,,,,,,,,
0,2018-10-30 16:38:58.8220,00:23,60,0,2018-10-30 16:39:01.0940,1540931941.093782,-0.08312924184627839,0.3339209859118033,-0.5371406834252428,0.1127777099609375,-0.1882781982421875,-1.164764404296875,37.17146301269531,15.318038940429688,-79.36962890625,,,,,,,,,,
0,2018-10-30 16:38:58.8220,00:23,60,0,2018-10-30 16:39:01.1100,1540931941.11047,-0.03546451728825819,0.10897282338051631,-0.6584370184339917,0.11505126953125,-0.1890716552734375,-1.2148895263671875,37.17146301269531,15.318038940429688,-79.36962890625,,,,,,,,,,
0,2018-10-30 16:38:58.8220,00:23,60,0,2018-10-30 16:39:01.1280,1540931941.12816,0.010861169873670157,0.1009697579887192,-0.6616706286295659,0.140167236328125,-0.220001220703125,-1.24102783203125,36.846923828125,15.15020751953125,-78.9251708984375,,,,,,,,,,
0,2018-10-30 16:38:58.8220,00:23,60,0,2018-10-30 16:39:01.1440,1540931941.14377,0.09468922518998533,0.28159706102668947,-0.5918619859236459,0.160736083984375,-0.2518463134765625,-1.279998779296875,36.89701843261719,15.527999877929688,-79.22062683105469,,,,,,,,,,
0,2018-10-30 16:38:58.8220,00:23,60,0,2018-10-30 16:39:01.1600,1540931941.16049,0.2691004439276017,0.31686050965264667,-0.6325532231672937,0.1663665771484375,-0.2214508056640625,-1.3353271484375,36.98921203613281,15.354995727539062,-78.98786926269531,,,,,,,,,,
0,2018-10-30 16:38:58.8220,00:23,60,0,2018-10-30 16:39:01.1780,1540931941.1775122,0.45785864408969285,-0.03816629421414358,-0.7508313977126558,0.1829833984375,-0.1793365478515625,-1.3973846435546875,36.797332763671875,15.081741333007812,-79.16459655761719,,,,,,,,,,
0,2018-10-30 16:38:58.8220,00:23,60,0,2018-10-30 16:39:01.1940,1540931941.193945,0.4569092271610796,-0.24903245984941857,-0.7607290359039353,0.1986236572265625,-0.191864013671875,-1.35345458984375,36.66288757324219,14.486587524414062,-79.27214050292969,,,,,,,,,,
0,2018-10-30 16:38:58.8220,00:23,60,0,2018-10-30 16:39:01.2110,1540931941.2105908,0.211975372229293,-0.14013766708884157,-0.6266780234864698,0.173431396484375,-0.2469329833984375,-1.25201416015625,36.417510986328125,14.535629272460938,-79.04948425292969,,,,,,,,,,
0,2018-10-30 16:38:58.8220,00:23,60,0,2018-10-30 16:39:01.2290,1540931941.22858,-0.1469649468593687,0.08842573662222797,-0.3917909437670071,0.1623077392578125,-0.28192138671875,-1.22930908203125,36.417510986328125,14.535629272460938,-79.04948425292969,,,,,,,,,,
0,2018-10-30 16:38:58.8220,00:23,60,0,2018-10-30 16:39:01.2450,1540931941.244689,-0.41909979653300666,0.34123003152352577,-0.2061545010347068,0.1485748291015625,-0.2319183349609375,-1.263580322265625,36.376861572265625,14.77728271484375,-78.80850219726562,,,,,,,,,,
0,2018-10-30 16:38:58.8220,00:23,60,0,2018-10-30 16:39:01.2610,1540931941.2605438,-0.4161580687929051,0.3237975116600851,-0.18154689256237463,0.1264190673828125,-0.1197509765625,-1.349395751953125,36.430877685546875,15.15545654296875,-78.63536071777344,,,,,,,,,,
0,2018-10-30 16:38:58.8220,00:23,60,0,2018-10-30 16:39:01.2770,1540931941.2772288,-0.13977068349062866,0.08908699952089465,-0.3039811963049145,0.1006927490234375,-0.00341796875,-1.379425048828125,36.64851379394531,15.2674560546875,-78.77548217773438,,,,,,,,,,
0,2018-10-30 16:38:58.8220,00:23,60,0,2018-10-30 16:39:01.2940,1540931941.293942,0.2419247492161061,-0.27524728603961357,-0.45123056876870365,0.0902252197265625,0.0477447509765625,-1.324462890625,36.412933349609375,14.926300048828125,-78.48878479003906,,,,,,,,,,
0,2018-10-30 16:38:58.8220,00:23,60,0,2018-10-30 16:39:01.3110,1540931941.310766,0.48312618388014666,-0.6259520457733142,-0.42387883910915386,0.14068603515625,-0.058563232421875,-0.9647369384765625,35.78248596191406,14.428695678710938,-78.7757568359375,,,,,,,,,,
0,2018-10-30 16:38:58.8220,00:23,60,0,2018-10-30 16:39:01.3270,1540931941.3272262,0.5294404194493877,-0.7113361861145627,-0.2804998386575768,0.14068603515625,-0.058563232421875,-0.9647369384765625,35.78248596191406,14.428695678710938,-78.7757568359375,,,,,,,,,,
0,2018-10-30 16:38:58.8220,00:23,60,0,2018-10-30 16:39:01.3450,1540931941.3449612,0.47768374787646073,-0.48506150304430723,-0.21060224637124814,0.0739288330078125,-0.0709686279296875,-0.786224365234375,35.175872802734375,14.160812377929688,-78.50650024414062,,,,,,,,,,
0,2018-10-30 16:38:58.8220,00:23,60,0,2018-10-30 16:39:01.3620,1540931941.361613,0.4112533250133062,-0.266994682453676,-0.21674243058053483,0.032470703125,-0.0551300048828125,-0.647369384765625,34.799163818359375,13.924285888671875,-78.61387634277344,,,,,,,,,,
0,2018-10-30 16:38:58.8220,00:23,60,0,2018-10-30 16:39:01.3780,1540931941.378274,0.34291767670630896,-0.13972620870042435,-0.23263191490838359,0.032470703125,-0.0551300048828125,-0.647369384765625,34.891357421875,13.75128173828125,-78.38111877441406,,,,,,,,,,
0,2018-10-30 16:38:58.8220,00:23,60,0,2018-10-30 16:39:01.3940,1540931941.393892,0.30414791018915344,-0.21522096664977255,-0.19416468349106106,0.055755615234375,-0.0712890625,-0.6533203125,34.60484313964844,13.341506958007812,-78.49002075195312,,,,,,,,,,
0,2018-10-30 16:38:58.8220,00:23,60,0,2018-10-30 16:39:01.4110,1540931941.4106932,0.20071792398541904,-0.6269725691030326,-0.03187670666770344,0.05877685546875,-0.1051483154296875,-0.640289306640625,34.29127502441406,13.092880249023438,-78.43827819824219,,,,,,,,,,
0,2018-10-30 16:38:58.8220,00:23,60,0,2018-10-30 16:39:01.4270,1540931941.427237,0.20071792398541904,-0.6269725691030326,-0.03187670666770344,0.05877685546875,-0.1051483154296875,-0.640289306640625,34.29127502441406,13.092880249023438,-78.43827819824219,,,,,,,,,,
0,2018-10-30 16:38:58.8220,00:23,60,0,2018-10-30 16:39:01.4440,1540931941.443953,0.05256174517045789,-0.5725559322333345,-0.03070305157530552,-0.0276947021484375,-0.122528076171875,-0.5786590576171875,33.76702880859375,13.042190551757812,-78.00032043457031,,,,,,,,,,
0,2018-10-30 16:38:58.8220,00:23,60,0,2018-10-30 16:39:01.4610,1540931941.4607239,-0.20979184645153703,-0.10613442629070986,-0.003292998687882978,-0.0413360595703125,-0.1555938720703125,-0.6544189453125,33.25178527832031,12.91046142578125,-78.18936157226562,,,,,,,,,,
0,2018-10-30 16:38:58.8220,00:23,60,0,2018-10-30 16:39:01.4770,1540931941.4773111,-0.20979184645153703,-0.10613442629070986,-0.003292998687882978,-0.0413360595703125,-0.1555938720703125,-0.6544189453125,33.30448913574219,13.288497924804688,-78.17242431640625,,,,,,,,,,
0,2018-10-30 16:38:58.8220,00:23,60,0,2018-10-30 16:39:01.4940,1540931941.4939399,-0.1774951592799281,-0.025525067467864457,0.04712916286280525,-0.0212554931640625,-0.15625,-0.84228515625,33.167266845703125,13.393478393554688,-78.09791564941406,,,,,,,,,,
0,2018-10-30 16:38:58.8220,00:23,60,0,2018-10-30 16:39:01.5110,1540931941.5106978,-0.07851291841273503,-0.032015989992714586,0.08029404054978002,-0.0212554931640625,-0.15625,-0.84228515625,33.24395751953125,13.30084228515625,-78.01914978027344,,,,,,,,,,
0,2018-10-30 16:38:58.8220,00:23,60,0,2018-10-30 16:39:01.5270,1540931941.527295,-0.0024530376800719865,-0.0027180222085348704,0.14456357450444426,-0.0005035400390625,-0.1576385498046875,-0.89691162109375,33.288482666015625,13.0595703125,-77.79151916503906,,,,,,,,,,
0,2018-10-30 16:38:58.8220,00:23,60,0,2018-10-30 16:39:01.5440,1540931941.543942,0.05030791193992383,0.23342953165486233,0.1994561182609395,-0.024200439453125,-0.1427001953125,-0.980255126953125,33.288482666015625,13.0595703125,-77.79151916503906,,,,,,,,,,
0,2018-10-30 16:38:58.8220,00:23,60,0,2018-10-30 16:39:01.5610,1540931941.56075,0.05030791193992383,0.23342953165486233,0.1994561182609395,-0.024200439453125,-0.1427001953125,-0.980255126953125,33.399261474609375,13.115768432617188,-77.62727355957031,,,,,,,,,,
0,2018-10-30 16:38:58.8220,00:23,60,0,2018-10-30 16:39:01.5770,1540931941.577345,0.0994070150610607,0.2978119836397459,0.21023233329583613,0.00823974609375,-0.1458892822265625,-1.0953216552734375,33.60270690917969,13.308242797851562,-77.76516723632812,,,,,,,,,,
0,2018-10-30 16:38:58.8220,00:23,60,0,2018-10-30 16:39:01.5950,1540931941.595073,0.044604486149410136,0.10326273968727742,0.3063831012920569,0.020233154296875,-0.1561431884765625,-1.13446044921875,33.72392272949219,12.974349975585938,-77.45875549316406,,,,,,,,,,
0,2018-10-30 16:38:58.8220,00:23,60,0,2018-10-30 16:39:01.6110,1540931941.610639,0.044604486149410136,0.10326273968727742,0.3063831012920569,0.020233154296875,-0.1561431884765625,-1.13446044921875,33.989898681640625,13.154693603515625,-77.51565551757812,,,,,,,,,,
0,2018-10-30 16:38:58.8220,00:23,60,0,2018-10-30 16:39:01.6270,1540931941.627386,-0.04915343160737448,-0.0028224181232659766,0.2827158550006318,0.0110626220703125,-0.177490234375,-1.183502197265625,33.97062683105469,12.925445556640625,-77.52523803710938,,,,,,,,,,
0,2018-10-30 16:38:58.8220,00:23,60,0,2018-10-30 16:39:01.6440,1540931941.644127,-0.13751791552453063,0.026023344907818283,0.31382770180326447,0.016571044921875,-0.1807098388671875,-1.2027587890625,33.97062683105469,12.925445556640625,-77.52523803710938,,,,,,,,,,
0,2018-10-30 16:38:58.8220,00:23,60,0,2018-10-30 16:39:01.6610,1540931941.6607308,-0.13751791552453063,0.026023344907818283,0.31382770180326447,0.016571044921875,-0.1807098388671875,-1.2027587890625,34.16001892089844,12.889190673828125,-77.04792785644531,,,,,,,,,,
0,2018-10-30 16:38:58.8220,00:23,60,0,2018-10-30 16:39:01.6780,1540931941.677566,0.02860235010745102,0.07756909412241095,0.2785128541682687,0.036590576171875,-0.1247406005859375,-1.2856597900390625,34.074859619140625,13.37213134765625,-77.03457641601562,,,,,,,,,,
0,2018-10-30 16:38:58.8220,00:23,60,0,2018-10-30 16:39:01.6940,1540931941.694108,0.15585191541696314,-0.07600928067195153,0.240812613144889,0.0643768310546875,-0.104461669921875,-1.28839111328125,34.093475341796875,13.601333618164062,-77.10310363769531,,,,,,,,,,
0,2018-10-30 16:38:58.8220,00:23,60,0,2018-10-30 16:39:01.7110,1540931941.710712,0.15585191541696314,-0.07600928067195153,0.240812613144889,0.1006011962890625,-0.132049560546875,-1.21868896484375,34.0291748046875,13.304061889648438,-76.805419921875,,,,,,,,,,
0,2018-10-30 16:38:58.8220,00:23,60,0,2018-10-30 16:39:01.7270,1540931941.72745,-0.0010724549709749092,-0.10371734128535395,0.5138859607866709,0.1384429931640625,-0.18359375,-1.1056671142578125,34.11810302734375,13.130706787109375,-76.96316528320312,,,,,,,,,,
0,2018-10-30 16:38:58.8220,00:23,60,0,2018-10-30 16:39:01.7440,1540931941.744143,-0.26921309564171203,0.01919979356281726,0.7132824242391926,0.1297149658203125,-0.2180023193359375,-1.04913330078125,34.11810302734375,13.130706787109375,-76.96316528320312,,,,,,,,,,
0,2018-10-30 16:38:58.8220,00:23,60,0,2018-10-30 16:39:01.7610,1540931941.760843,-0.26921309564171203,0.01919979356281726,0.7132824242391926,0.1071319580078125,-0.1821136474609375,-1.0478515625,34.103240966796875,13.211135864257812,-77.03903198242188,,,,,,,,,,
0,2018-10-30 16:38:58.8220,00:23,60,0,2018-10-30 16:39:01.7770,1540931941.777391,-0.5275189487228955,0.023820910686322753,0.7187046202185939,0.0980682373046875,-0.11273193359375,-1.0951080322265625,34.29887390136719,13.794036865234375,-77.00668334960938,,,,,,,,,,
0,2018-10-30 16:38:58.8220,00:23,60,0,2018-10-30 16:39:01.7940,1540931941.794235,-0.34057516021147527,-0.1767625236640473,0.6616565138757886,0.111083984375,-0.06005859375,-1.1422882080078125,34.33866882324219,14.252700805664062,-76.83132934570312,,,,,,,,,,
0,2018-10-30 16:38:58.8220,00:23,60,0,2018-10-30 16:39:01.8120,1540931941.811863,-0.06364156056962356,-0.45703439573231336,0.5712917296638739,0.106842041015625,-0.0307464599609375,-1.1279296875,34.14533996582031,14.679702758789062,-76.66983032226562,,,,,,,,,,
0,2018-10-30 16:38:58.8220,00:23,60,0,2018-10-30 16:39:01.8270,1540931941.827456,0.07880879560984283,-0.6798917104917791,0.5110142741832384,0.091461181640625,-0.0425872802734375,-1.021331787109375,33.95347595214844,14.406448364257812,-76.8465576171875,,,,,,,,,,
0,2018-10-30 16:38:58.8220,00:23,60,0,2018-10-30 16:39:01.8440,1540931941.844215,-0.020236562175185106,-0.6777651763613508,0.48748178384297125,0.07598876953125,-0.0821380615234375,-0.857666015625,33.3995361328125,14.516586303710938,-76.56034851074219,,,,,,,,,,
0,2018-10-30 16:38:58.8220,00:23,60,0,2018-10-30 16:39:01.8610,1540931941.860884,-0.2541305491241573,-0.438639143134809,0.485691340642111,0.05438232421875,-0.1263275146484375,-0.7164459228515625,33.3995361328125,14.516586303710938,-76.56034851074219,,,,,,,,,,
0,2018-10-30 16:38:58.8220,00:23,60,0,2018-10-30 16:39:01.8780,1540931941.877507,-0.41319769892517305,-0.10379244242809418,0.44009562593497337,0.0077362060546875,-0.131256103515625,-0.6772308349609375,33.174041748046875,14.794967651367188,-76.25001525878906,,,,,,,,,,
0,2018-10-30 16:38:58.8220,00:23,60,0,2018-10-30 16:39:01.8940,1540931941.89418,-0.43739997427959515,0.09695743949040582,0.33540463295508643,-0.00994873046875,-0.1065826416015625,-0.7157440185546875,33.24662780761719,15.402328491210938,-76.1453857421875,,,,,,,,,,
0,2018-10-30 16:38:58.8220,00:23,60,0,2018-10-30 16:39:01.9110,1540931941.910785,-0.3518629684917761,0.08787339701214554,0.23792441494269806,0.0135650634765625,-0.0896453857421875,-0.7711181640625,33.38957214355469,15.607177734375,-76.12998962402344,,,,,,,,,,
0,2018-10-30 16:38:58.8220,00:23,60,0,2018-10-30 16:39:01.9270,1540931941.927495,-0.2333038304514106,-0.09371770402432443,0.19376654090809423,0.045745849609375,-0.1018829345703125,-0.8162994384765625,33.49774169921875,15.663116455078125,-76.27815246582031,,,,,,,,,,
0,2018-10-30 16:38:58.8220,00:23,60,0,2018-10-30 16:39:01.9440,1540931941.944247,-0.10836588896808726,-0.26251924024179785,0.18174876017300265,0.0521087646484375,-0.136322021484375,-0.8264923095703125,33.19114685058594,15.72442626953125,-75.98030090332031,,,,,,,,,,
0,2018-10-30 16:38:58.8220,00:23,60,0,2018-10-30 16:39:01.9610,1540931941.960825,-0.03149853779291219,-0.275129041687214,0.17528952926512448,0.0285491943359375,-0.1548309326171875,-0.7913818359375,33.19114685058594,15.72442626953125,-75.98030090332031,,,,,,,,,,
0,2018-10-30 16:38:58.8220,00:23,60,0,2018-10-30 16:39:01.9770,1540931941.9774451,-0.0296268681788045,-0.190768620468992,0.17218055500856597,0.0040740966796875,-0.177154541015625,-0.77288818359375,33.083648681640625,15.668548583984375,-75.75404357910156,,,,,,,,,,
0,2018-10-30 16:38:58.8220,00:23,60,0,2018-10-30 16:39:01.9960,1540931941.995635,-0.06832419671430988,-0.051882639092487685,0.15522740414133954,-0.021392822265625,-0.1951141357421875,-0.79254150390625,33.07073974609375,15.749176025390625,-75.59564208984375,,,,,,,,,,
0,2018-10-30 16:38:58.8220,00:23,60,0,2018-10-30 16:39:02.0110,1540931942.0111752,-0.10783139253730835,0.10658290261827921,0.11259791825633217,-0.0388946533203125,-0.2086944580078125,-0.828033447265625,33.21626281738281,15.95428466796875,-75.26785278320312,,,,,,,,,,
0,2018-10-30 16:38:58.8220,00:23,60,0,2018-10-30 16:39:02.0290,1540931942.028851,-0.09882831015618648,0.2592861626784417,0.04210723999524284,-0.045135498046875,-0.2109527587890625,-0.896087646484375,33.245819091796875,16.1026611328125,-75.72906494140625,,,,,,,,,,
0,2018-10-30 16:38:58.8220,00:23,60,0,2018-10-30 16:39:02.0440,1540931942.044441,-0.06880463097496017,0.4063539075558874,-0.021970280044826693,-0.0228729248046875,-0.2077789306640625,-0.967071533203125,33.480255126953125,16.13446044921875,-75.55902099609375,,,,,,,,,,
0,2018-10-30 16:38:58.8220,00:23,60,0,2018-10-30 16:39:02.0610,1540931942.0610871,0.03155872523354798,0.41744251138665034,-0.06053178736473803,0.0091552734375,-0.215362548828125,-1.0761566162109375,33.480255126953125,16.13446044921875,-75.55902099609375,,,,,,,,,,
0,2018-10-30 16:38:58.8220,00:23,60,0,2018-10-30 16:39:02.0780,1540931942.0776649,0.15692729986513712,0.2929913957505935,-0.0746366874461247,0.034698486328125,-0.2172698974609375,-1.1692657470703125,33.71534729003906,16.166290283203125,-75.31085205078125,,,,,,,,,,
0,2018-10-30 16:38:58.8220,00:23,60,0,2018-10-30 16:39:02.0950,1540931942.094582,0.1882402153300708,0.15523219783130168,-0.05125519833966502,0.0342254638671875,-0.2342529296875,-1.2041015625,33.804931640625,15.993026733398438,-75.3905029296875,,,,,,,,,,
0,2018-10-30 16:38:58.8220,00:23,60,0,2018-10-30 16:39:02.1110,1540931942.1111,0.09881499435073608,0.1755723569728909,-0.054421164243551215,0.01605224609375,-0.220458984375,-1.1920318603515625,34.16239929199219,16.000320434570312,-75.292724609375,,,,,,,,,,
0,2018-10-30 16:38:58.8220,00:23,60,0,2018-10-30 16:39:02.1280,1540931942.12786,0.00714978857853573,0.3812490869080375,-0.14731035885275198,-0.00860595703125,-0.176177978515625,-1.186981201171875,34.19584655761719,16.149093627929688,-75.28536987304688,,,,,,,,,,
0,2018-10-30 16:38:58.8220,00:23,60,0,2018-10-30 16:39:02.1450,1540931942.144504,0.01385083451339311,0.5091788235599558,-0.2381774152462556,-0.0120697021484375,-0.13861083984375,-1.2627105712890625,34.65773010253906,15.9027099609375,-75.19136047363281,,,,,,,,,,
0,2018-10-30 16:38:58.8220,00:23,60,0,2018-10-30 16:39:02.1610,1540931942.16115,0.114104202168881,0.2973155704125552,-0.24167547733807468,0.0106353759765625,-0.124786376953125,-1.387451171875,34.74861145019531,15.729568481445312,-75.11480712890625,,,,,,,,,,
0,2018-10-30 16:38:58.8220,00:23,60,0,2018-10-30 16:39:02.1780,1540931942.17772,0.11201974598367598,0.08737911431382683,-0.21087894880850738,0.0044097900390625,-0.096954345703125,-1.414703369140625,34.74861145019531,15.729568481445312,-75.11480712890625,,,,,,,,,,
0,2018-10-30 16:38:58.8220,00:23,60,0,2018-10-30 16:39:02.1950,1540931942.194663,-0.06036720400937113,0.13249519370864118,-0.26004143516358813,-0.0507049560546875,-0.0669708251953125,-1.3374176025390625,34.768524169921875,15.958908081054688,-75.02711486816406,,,,,,,,,,
0,2018-10-30 16:38:58.8220,00:23,60,0,2018-10-30 16:39:02.2110,1540931942.2111769,-0.22859136690251539,0.37896915469882064,-0.3635704909598735,-0.0930328369140625,-0.051116943359375,-1.292572021484375,34.897247314453125,16.244232177734375,-75.00949096679688,,,,,,,,,,
0,2018-10-30 16:38:58.8220,00:23,60,0,2018-10-30 16:39:02.2280,1540931942.227841,-0.18858775785232612,0.6743400848833999,-0.4820814257845086,0.00543212890625,0.063232421875,-1.35882568359375,35.16383361816406,16.424652099609375,-74.98828125,,,,,,,,,,
0,2018-10-30 16:38:58.8220,00:23,60,0,2018-10-30 16:39:02.2470,1540931942.247433,0.44063358447516937,0.2710480136327766,-0.6776272246168847,0.0771636962890625,0.09112548828125,-1.34356689453125,35.68121337890625,15.856170654296875,-75.05937194824219,,,,,,,,,,
0,2018-10-30 16:38:58.8220,00:23,60,0,2018-10-30 16:39:02.2620,1540931942.261997,0.44063358447516937,0.2710480136327766,-0.6776272246168847,0.0771636962890625,0.09112548828125,-1.34356689453125,35.46290588378906,15.744094848632812,-74.99734497070312,,,,,,,,,,
0,2018-10-30 16:38:58.8220,00:23,60,0,2018-10-30 16:39:02.2780,1540931942.277837,0.4806718146195296,0.0595528093480249,-0.6286381100487681,0.0667724609375,0.01336669921875,-1.019256591796875,35.46290588378906,15.744094848632812,-74.99734497070312,,,,,,,,,,
0,2018-10-30 16:38:58.8220,00:23,60,0,2018-10-30 16:39:02.2940,1540931942.2944021,0.2274491371109804,0.052094626715258,-0.5900353237319605,0.0667724609375,0.01336669921875,-1.019256591796875,35.52473449707031,15.731887817382812,-74.99444580078125,,,,,,,,,,
0,2018-10-30 16:38:58.8220,00:23,60,0,2018-10-30 16:39:02.3110,1540931942.3112102,-0.10646439194977068,0.08456308777717704,-0.604906947891181,0.05194091796875,-0.02593994140625,-0.91326904296875,35.32438659667969,15.84893798828125,-75.07902526855469,,,,,,,,,,
0,2018-10-30 16:38:58.8220,00:23,60,0,2018-10-30 16:39:02.3280,1540931942.327842,-0.18329419255357562,0.0897983298480548,-0.6477164634658777,0.068817138671875,-0.0504608154296875,-0.9258880615234375,35.455718994140625,16.134536743164062,-74.7490234375,,,,,,,,,,
0,2018-10-30 16:38:58.8220,00:23,60,0,2018-10-30 16:39:02.3440,1540931942.3443298,-0.18329419255357562,0.0897983298480548,-0.6477164634658777,0.068817138671875,-0.0504608154296875,-0.9258880615234375,35.4415283203125,16.21502685546875,-74.74679565429688,,,,,,,,,,
0,2018-10-30 16:38:58.8220,00:23,60,0,2018-10-30 16:39:02.3650,1540931942.3648849,0.10129173416450978,-0.024467526198993995,-0.6158000756979322,0.108184814453125,-0.0759735107421875,-0.8641204833984375,35.28570556640625,16.090774536132812,-74.60377502441406,,,,,,,,,,
0,2018-10-30 16:38:58.8220,00:23,60,0,2018-10-30 16:39:02.3790,1540931942.378907,0.36629943212887767,-0.15662662897806717,-0.39007506907666906,0.103668212890625,-0.112274169921875,-0.7621002197265625,35.01014709472656,15.600234985351562,-75.10539245605469,,,,,,,,,,
0,2018-10-30 16:38:58.8220,00:23,60,0,2018-10-30 16:39:02.3950,1540931942.394576,0.36629943212887767,-0.15662662897806717,-0.39007506907666906,0.103668212890625,-0.112274169921875,-0.7621002197265625,35.01014709472656,15.600234985351562,-75.10539245605469,,,,,,,,,,
0,2018-10-30 16:38:58.8220,00:23,60,0,2018-10-30 16:39:02.4110,1540931942.411305,0.24910489783106873,-0.14516118785305804,-0.2711670569335031,0.026580810546875,-0.15057373046875,-0.674652099609375,35.016510009765625,15.910125732421875,-74.9373779296875,,,,,,,,,,
0,2018-10-30 16:38:58.8220,00:23,60,0,2018-10-30 16:39:02.4280,1540931942.427956,-0.011244132438423551,-0.1265837750369923,-0.2346721626194933,-0.0127105712890625,-0.146240234375,-0.688201904296875,34.77357482910156,16.268646240234375,-75.01531982421875,,,,,,,,,,
0,2018-10-30 16:38:58.8220,00:23,60,0,2018-10-30 16:39:02.4450,1540931942.444659,-0.011244132438423551,-0.1265837750369923,-0.2346721626194933,-0.0127105712890625,-0.146240234375,-0.688201904296875,34.87669372558594,16.014846801757812,-75.17527770996094,,,,,,,,,,
0,2018-10-30 16:38:58.8220,00:23,60,0,2018-10-30 16:39:02.4610,1540931942.461224,0.017674068574310864,0.022529277557634324,-0.2666210409527379,-0.0664215087890625,-0.2349090576171875,-0.8179168701171875,34.67387390136719,15.8223876953125,-74.95928955078125,,,,,,,,,,
0,2018-10-30 16:38:58.8220,00:23,60,0,2018-10-30 16:39:02.4780,1540931942.477851,0.0861846865649263,-0.05978024330511767,-0.13395220914102354,-0.027801513671875,-0.2702789306640625,-0.91680908203125,34.7982177734375,15.79803466796875,-74.8753662109375,,,,,,,,,,
0,2018-10-30 16:38:58.8220,00:23,60,0,2018-10-30 16:39:02.4940,1540931942.494461,0.0861846865649263,-0.05978024330511767,-0.13395220914102354,0.073394775390625,-0.309478759765625,-0.9598236083984375,34.7982177734375,15.79803466796875,-74.8753662109375,,,,,,,,,,
0,2018-10-30 16:38:58.8220,00:23,60,0,2018-10-30 16:39:02.5110,1540931942.5112839,-0.730570334455442,-0.5090784223868599,0.5810258497642226,0.110595703125,-0.3429107666015625,-0.968902587890625,34.29814147949219,16.595596313476562,-75.02900695800781,,,,,,,,,,
0,2018-10-30 16:38:58.8220,00:23,60,0,2018-10-30 16:39:02.5280,1540931942.528094,-1.000553083652187,-0.4725952459816463,0.7610406257514746,0.0365447998046875,-0.280914306640625,-1.0521697998046875,34.2786865234375,17.066726684570312,-74.54415893554688,,,,,,,,,,
0,2018-10-30 16:38:58.8220,00:23,60,0,2018-10-30 16:39:02.5450,1540931942.544544,-1.000553083652187,-0.4725952459816463,0.7610406257514746,-0.073944091796875,-0.1193389892578125,-1.2512359619140625,34.103302001953125,17.722869873046875,-74.52926635742188,,,,,,,,,,
0,2018-10-30 16:38:58.8220,00:23,60,0,2018-10-30 16:39:02.5610,1540931942.5612578,0.017092700508346565,-0.4216492406445395,0.45459201069660166,-0.112274169921875,0.04156494140625,-1.4183502197265625,34.28880310058594,17.686233520507812,-74.52053833007812,,,,,,,,,,
0,2018-10-30 16:38:58.8220,00:23,60,0,2018-10-30 16:39:02.5790,1540931942.5790958,0.7170827551147356,-0.5888166612171403,0.27645423064563746,-0.0499420166015625,0.1003875732421875,-1.4526214599609375,33.8458251953125,17.152206420898438,-74.56451416015625,,,,,,,,,,
0,2018-10-30 16:38:58.8220,00:23,60,0,2018-10-30 16:39:02.5950,1540931942.594629,1.0901428879868884,-0.622481147924614,0.22599238799470706,0.0116119384765625,0.0446319580078125,-1.33123779296875,33.8458251953125,17.152206420898438,-74.56451416015625,,,,,,,,,,
0,2018-10-30 16:38:58.8220,00:23,60,0,2018-10-30 16:39:02.6110,1540931942.611209,1.125452409299704,-0.5538626719098503,0.29246195932588576,0.0274200439453125,-0.0361785888671875,-1.1801300048828125,33.54386901855469,16.82281494140625,-74.827392578125,,,,,,,,,,
0,2018-10-30 16:38:58.8220,00:23,60,0,2018-10-30 16:39:02.6280,1540931942.627991,0.9355639635709833,-0.5373473447258329,0.4049685311568282,0.0413970947265625,-0.0792694091796875,-1.0723876953125,33.23811340332031,16.183807373046875,-74.94587707519531,,,,,,,,,,
0,2018-10-30 16:38:58.8220,00:23,60,0,2018-10-30 16:39:02.6450,1540931942.6446629,0.6161867666882117,-0.5171131793956288,0.4393379566048458,0.0192108154296875,-0.1017608642578125,-0.9944610595703125,33.095184326171875,15.978958129882812,-74.96128845214844,,,,,,,,,,
0,2018-10-30 16:38:58.8220,00:23,60,0,2018-10-30 16:39:02.6610,1540931942.661248,0.2802939763053137,-0.48120524578587254,0.3805657197723231,0.0108489990234375,-0.075836181640625,-0.954376220703125,33.06828308105469,15.439682006835938,-75.29505920410156,,,,,,,,,,
0,2018-10-30 16:38:58.8220,00:23,60,0,2018-10-30 16:39:02.6780,1540931942.678093,0.007150054894644739,-0.3896516264633465,0.3207761554033902,0.0441741943359375,-0.0183868408203125,-0.9387054443359375,32.75975036621094,15.50079345703125,-75.23150634765625,,,,,,,,,,
0,2018-10-30 16:38:58.8220,00:23,60,0,2018-10-30 16:39:02.6950,1540931942.694583,-0.15778190825894356,-0.2182130281344766,0.31031872075097605,0.0711212158203125,-0.0042877197265625,-0.96539306640625,32.75975036621094,15.50079345703125,-75.23150634765625,,,,,,,,,,
0,2018-10-30 16:38:58.8220,00:23,60,0,2018-10-30 16:39:02.7110,1540931942.71133,-0.20296323510046485,0.02757889730053357,0.35239639965811903,0.09368896484375,-0.0070953369140625,-0.9991912841796875,33.01344299316406,15.761825561523438,-75.05186462402344,,,,,,,,,,
0,2018-10-30 16:38:58.8220,00:23,60,0,2018-10-30 16:39:02.7280,1540931942.7279692,-0.11323334849242508,0.1563651065590214,0.3889429592972764,0.1059722900390625,-0.0042877197265625,-1.0401458740234375,32.909027099609375,16.015518188476562,-75.048095703125,,,,,,,,,,
0,2018-10-30 16:38:58.8220,00:23,60,0,2018-10-30 16:39:02.7450,1540931942.744574,0.01838513258536202,0.23959155378508767,0.3579589442269675,0.0935211181640625,0.02056884765625,-1.0483245849609375,33.14593505859375,16.3568115234375,-75.17863464355469,,,,,,,,,,
0,2018-10-30 16:38:58.8220,00:23,60,0,2018-10-30 16:39:02.7630,1540931942.7627602,0.08388904170527799,0.3399509152519607,0.25847682802316657,0.067291259765625,0.0269622802734375,-1.0067596435546875,33.649749755859375,15.868865966796875,-75.16940307617188,,,,,,,,,,
0,2018-10-30 16:38:58.8220,00:23,60,0,2018-10-30 16:39:02.7790,1540931942.7792292,0.01944080964146943,0.4134400465843703,0.15792199053228173,0.046905517578125,0.0078125,-0.95697021484375,33.85581970214844,16.061630249023438,-74.994873046875,,,,,,,,,,
0,2018-10-30 16:38:58.8220,00:23,60,0,2018-10-30 16:39:02.7960,1540931942.7964191,-0.13173539384964159,0.4638891060620683,0.07663512352812016,0.037933349609375,-0.0306396484375,-0.9260406494140625,34.4259033203125,15.871170043945312,-75.04902648925781,,,,,,,,,,
0,2018-10-30 16:38:58.8220,00:23,60,0,2018-10-30 16:39:02.8130,1540931942.8127608,-0.23010670556277046,0.41536631100082455,0.00485121424168834,0.0436248779296875,-0.0535430908203125,-0.9324798583984375,34.4259033203125,15.871170043945312,-75.04902648925781,,,,,,,,,,
0,2018-10-30 16:38:58.8220,00:23,60,0,2018-10-30 16:39:02.8290,1540931942.829492,-0.19308823377845105,0.3038408477154673,-0.05419266502202242,0.06732177734375,-0.0607452392578125,-0.9389801025390625,34.49913024902344,16.478591918945312,-74.86630249023438,,,,,,,,,,
0,2018-10-30 16:38:58.8220,00:23,60,0,2018-10-30 16:39:02.8460,1540931942.845916,-0.07943730162710154,0.16653145770428987,-0.07045232874139219,0.0879058837890625,-0.119842529296875,-0.85552978515625,34.80047607421875,16.807937622070312,-74.68153381347656,,,,,,,,,,
0,2018-10-30 16:38:58.8220,00:23,60,0,2018-10-30 16:39:02.8690,1540931942.869345,-0.021732459759482615,-0.07216926869616629,-0.02257188813507559,0.069244384765625,-0.1492767333984375,-0.7783050537109375,34.657562255859375,16.60308837890625,-74.69692993164062,,,,,,,,,,
0,2018-10-30 16:38:58.8220,00:23,60,0,2018-10-30 16:39:02.8780,1540931942.87797,-0.021732459759482615,-0.07216926869616629,-0.02257188813507559,0.069244384765625,-0.1492767333984375,-0.7783050537109375,34.65496826171875,16.602828979492188,-75.00932312011719,,,,,,,,,,
0,2018-10-30 16:38:58.8220,00:23,60,0,2018-10-30 16:39:02.8950,1540931942.895026,-0.10712325800345629,-0.06601443710088416,-0.004339088364066102,0.0115814208984375,-0.180450439453125,-0.684539794921875,34.85205078125,16.485443115234375,-75.31520080566406,,,,,,,,,,
0,2018-10-30 16:38:58.8220,00:23,60,0,2018-10-30 16:39:02.9110,1540931942.9114609,-0.14142690337254893,-0.015909724352133368,-0.009623332599001328,-0.0118255615234375,-0.19024658203125,-0.6942596435546875,34.85205078125,16.485443115234375,-75.31520080566406,,,,,,,,,,
0,2018-10-30 16:38:58.8220,00:23,60,0,2018-10-30 16:39:02.9280,1540931942.928216,-0.10079212514401091,0.04105981873851467,-0.018129735436823422,-0.01300048828125,-0.2159423828125,-0.7169952392578125,34.78564453125,16.88836669921875,-74.75740051269531,,,,,,,,,,
0,2018-10-30 16:38:58.8220,00:23,60,0,2018-10-30 16:39:02.9450,1540931942.94479,-0.021174527511111017,0.1018573895800426,0.004414189506806337,-0.0145263671875,-0.2542572021484375,-0.749114990234375,34.71466064453125,17.290817260742188,-74.74627685546875,,,,,,,,,,
0,2018-10-30 16:38:58.8220,00:23,60,0,2018-10-30 16:39:02.9610,1540931942.961478,0.003332147155907143,0.25704404735670394,0.08705607287360022,-0.0093536376953125,-0.2676544189453125,-0.8063507080078125,35.208038330078125,17.1929931640625,-74.87919616699219,,,,,,,,,,
0,2018-10-30 16:38:58.8220,00:23,60,0,2018-10-30 16:39:02.9780,1540931942.9782782,-0.03554254790819751,0.392425575054773,0.13542120879831124,-0.0057830810546875,-0.2510833740234375,-0.865814208984375,35.62162780761719,16.878265380859375,-74.868408203125,,,,,,,,,,
0,2018-10-30 16:38:58.8220,00:23,60,0,2018-10-30 16:39:02.9950,1540931942.994986,-0.0956998948236704,0.4936440722893056,0.12271020723147205,-0.0057525634765625,-0.22607421875,-0.945281982421875,35.94941711425781,17.046401977539062,-74.92239379882812,,,,,,,,,,
0,2018-10-30 16:38:58.8220,00:23,60,0,2018-10-30 16:39:03.0110,1540931943.011396,-0.1002605581904311,0.551300178308976,0.051034688601406454,-0.0166778564453125,-0.203887939453125,-1.0455322265625,35.94941711425781,17.046401977539062,-74.92239379882812,,,,,,,,,,
0,2018-10-30 16:38:58.8220,00:23,60,0,2018-10-30 16:39:03.0280,1540931943.0283651,0.11535215945569212,0.43241480303507585,-0.21902103120920663,0.0004730224609375,-0.1915283203125,-1.135650634765625,36.1876220703125,17.3878173828125,-74.896728515625,,,,,,,,,,
0,2018-10-30 16:38:58.8220,00:23,60,0,2018-10-30 16:39:03.0450,1540931943.04474,0.19565365685652436,0.21982424059397454,-0.26320793369969236,0.056396484375,-0.2060089111328125,-1.194366455078125,36.636627197265625,17.2220458984375,-74.64430236816406,,,,,,,,,,
0,2018-10-30 16:38:58.8220,00:23,60,0,2018-10-30 16:39:03.0630,1540931943.062563,0.18784313801153998,0.06629353638312446,-0.2591119919431505,0.084075927734375,-0.2260894775390625,-1.1985626220703125,36.640380859375,17.53167724609375,-74.78866577148438,,,,,,,,,,
0,2018-10-30 16:38:58.8220,00:23,60,0,2018-10-30 16:39:03.0790,1540931943.079156,0.14802701550209232,-0.020870394514623965,-0.2752728523860783,0.0815582275390625,-0.2282257080078125,-1.2069091796875,36.818878173828125,17.185089111328125,-75.02606201171875,,,,,,,,,,
0,2018-10-30 16:38:58.8220,00:23,60,0,2018-10-30 16:39:03.0950,1540931943.094846,0.10866469564239414,-0.05832748893047944,-0.28066388938072573,0.098419189453125,-0.210968017578125,-1.2455291748046875,36.9864501953125,16.9193115234375,-74.87071228027344,,,,,,,,,,
0,2018-10-30 16:38:58.8220,00:23,60,0,2018-10-30 16:39:03.1120,1540931943.1115189,0.07798321567191827,-0.06459976592983406,-0.2613887283590592,0.0989837646484375,-0.204437255859375,-1.296478271484375,36.99998474121094,16.838760375976562,-74.95103454589844,,,,,,,,,,
0,2018-10-30 16:38:58.8220,00:23,60,0,2018-10-30 16:39:03.1280,1540931943.1282148,0.13774641474605942,-0.33211243321553047,-0.3163470521944794,0.07989501953125,-0.19451904296875,-1.38214111328125,36.99998474121094,16.838760375976562,-74.95103454589844,,,,,,,,,,
0,2018-10-30 16:38:58.8220,00:23,60,0,2018-10-30 16:39:03.1450,1540931943.144792,0.15382551614352183,-0.5449839591516351,-0.4065658951786577,0.06732177734375,-0.1626434326171875,-1.3843536376953125,36.60498046875,17.382705688476562,-75.03033447265625,,,,,,,,,,
0,2018-10-30 16:38:58.8220,00:23,60,0,2018-10-30 16:39:03.1610,1540931943.1614408,0.017064471000791726,-0.4051738608768733,-0.41921085035046296,0.043914794921875,-0.1446380615234375,-1.2850341796875,36.21534729003906,17.226776123046875,-74.97926330566406,,,,,,,,,,
0,2018-10-30 16:38:58.8220,00:23,60,0,2018-10-30 16:39:03.1780,1540931943.178245,-0.19787153741234237,0.05861644190875304,-0.38860287362607326,-0.005828857421875,-0.1572418212890625,-1.2135162353515625,36.09039306640625,17.251052856445312,-75.14126586914062,,,,,,,,,,
0,2018-10-30 16:38:58.8220,00:23,60,0,2018-10-30 16:39:03.1950,1540931943.1947942,-0.2562498927196423,0.5526519988783003,-0.4533019754645673,-0.0400848388671875,-0.1069488525390625,-1.2060089111328125,36.460113525390625,17.17767333984375,-75.280029296875,,,,,,,,,,
0,2018-10-30 16:38:58.8220,00:23,60,0,2018-10-30 16:39:03.2120,1540931943.2115068,-0.023731162157587082,0.6893802871396224,-0.5816927053011783,0.00067138671875,0.0034637451171875,-1.285491943359375,36.668121337890625,17.370620727539062,-74.87123107910156,,,,,,,,,,
0,2018-10-30 16:38:58.8220,00:23,60,0,2018-10-30 16:39:03.2280,1540931943.22831,0.2911282482519741,0.6388872855039381,-0.6118149214427376,0.0698699951171875,0.053924560546875,-1.2907562255859375,36.668121337890625,17.370620727539062,-74.87123107910156,,,,,,,,,,
0,2018-10-30 16:38:58.8220,00:23,60,0,2018-10-30 16:39:03.2450,1540931943.24487,0.4466150442834873,0.4814374734329274,-0.5606452105740641,0.109222412109375,0.031524658203125,-1.216949462890625,36.979248046875,17.30975341796875,-74.62239074707031,,,,,,,,,,
0,2018-10-30 16:38:58.8220,00:23,60,0,2018-10-30 16:39:03.2640,1540931943.263828,0.36935008315756346,0.2450710077279257,-0.5020207791820408,0.1131591796875,-0.023162841796875,-1.106048583984375,36.96244812011719,17.389999389648438,-74.93255615234375,,,,,,,,,,
0,2018-10-30 16:38:58.8220,00:23,60,0,2018-10-30 16:39:03.2790,1540931943.279027,0.2205763172858129,-0.0750774406065328,-0.4177817981095264,0.1306304931640625,-0.0638885498046875,-0.9955902099609375,37.21958923339844,16.950973510742188,-74.85685729980469,,,,,,,,,,
0,2018-10-30 16:38:58.8220,00:23,60,0,2018-10-30 16:39:03.2960,1540931943.295999,0.10023658974062039,-0.28843233028048687,-0.3302053435589247,0.1179046630859375,-0.0958404541015625,-0.8853759765625,37.41474914550781,16.833389282226562,-75.39701843261719,,,,,,,,,,
0,2018-10-30 16:38:58.8220,00:23,60,0,2018-10-30 16:39:03.3130,1540931943.312924,0.024175111111303292,-0.2911570103917469,-0.2777181668989891,0.0765533447265625,-0.108673095703125,-0.7771759033203125,37.058563232421875,16.826217651367188,-75.338623046875,,,,,,,,,,
0,2018-10-30 16:38:58.8220,00:23,60,0,2018-10-30 16:39:03.3290,1540931943.329187,-0.015063904389924204,-0.19469278833522377,-0.23368439617118292,0.0445556640625,-0.1161041259765625,-0.7056121826171875,36.86015319824219,16.943466186523438,-75.18891906738281,,,,,,,,,,
0,2018-10-30 16:38:58.8220,00:23,60,0,2018-10-30 16:39:03.3450,1540931943.3451262,-0.0709535356585451,-0.06791220569367462,-0.15748336790074569,0.0384063720703125,-0.1318511962890625,-0.656402587890625,36.86015319824219,16.943466186523438,-75.18891906738281,,,,,,,,,,
0,2018-10-30 16:38:58.8220,00:23,60,0,2018-10-30 16:39:03.3620,1540931943.3616009,-0.13834855546852634,-0.04585590554563837,-0.10175512419418356,0.0220947265625,-0.1418609619140625,-0.652984619140625,36.81187438964844,16.8751220703125,-75.27215576171875,,,,,,,,,,
0,2018-10-30 16:38:58.8220,00:23,60,0,2018-10-30 16:39:03.3780,1540931943.378282,-0.198800181684453,-0.08311486077639195,-0.10606997779232995,-0.002593994140625,-0.1369476318359375,-0.676788330078125,36.872222900390625,17.563201904296875,-74.93101501464844,,,,,,,,,,
0,2018-10-30 16:38:58.8220,00:23,60,0,2018-10-30 16:39:03.3950,1540931943.394963,-0.24401959172956242,-0.07609263761407102,-0.13068024942575218,-0.0213165283203125,-0.1333465576171875,-0.6978759765625,36.973388671875,17.309173583984375,-75.32527160644531,,,,,,,,,,
0,2018-10-30 16:38:58.8220,00:23,60,0,2018-10-30 16:39:03.4120,1540931943.411623,-0.24285073032712665,0.03973116767067414,-0.15623834009113363,-0.0389404296875,-0.1356353759765625,-0.73638916015625,37.021026611328125,17.377471923828125,-75.32012939453125,,,,,,,,,,
0,2018-10-30 16:38:58.8220,00:23,60,0,2018-10-30 16:39:03.4280,1540931943.4283519,-0.15327504074620246,0.1384779850975042,-0.18076791794352648,-0.0455780029296875,-0.1402587890625,-0.79742431640625,37.08534240722656,17.67474365234375,-75.6177978515625,,,,,,,,,,
0,2018-10-30 16:38:58.8220,00:23,60,0,2018-10-30 16:39:03.4450,1540931943.444989,-0.02281183894929173,0.11121999870832518,-0.16905347125659492,-0.0347747802734375,-0.1639251708984375,-0.872833251953125,37.08534240722656,17.67474365234375,-75.6177978515625,,,,,,,,,,
0,2018-10-30 16:38:58.8220,00:23,60,0,2018-10-30 16:39:03.4620,1540931943.461633,0.07781330599437121,0.051791558983206976,-0.1552298009863206,-0.0090484619140625,-0.1748046875,-0.9173736572265625,36.84938049316406,18.343231201171875,-75.44961547851562,,,,,,,,,,
0,2018-10-30 16:38:58.8220,00:23,60,0,2018-10-30 16:39:03.4780,1540931943.478399,0.10674881755419115,0.10443985688909245,-0.13696717381110224,0.0076751708984375,-0.182891845703125,-0.9335479736328125,37.051055908203125,18.226303100585938,-75.20883178710938,,,,,,,,,,
0,2018-10-30 16:38:58.8220,00:23,60,0,2018-10-30 16:39:03.4950,1540931943.494977,0.12545326315425367,0.19707738277528072,-0.08652690276500147,0.0364532470703125,-0.1953125,-0.9558563232421875,37.399566650390625,17.923446655273438,-75.59144592285156,,,,,,,,,,
0,2018-10-30 16:38:58.8220,00:23,60,0,2018-10-30 16:39:03.5120,1540931943.511682,0.15290539398689945,0.2298382589248905,0.039868586782922225,0.07073974609375,-0.2225189208984375,-1.0030364990234375,37.74497985839844,17.311050415039062,-75.75155639648438,,,,,,,,,,
0,2018-10-30 16:38:58.8220,00:23,60,0,2018-10-30 16:39:03.5290,1540931943.529356,0.13590403990394262,0.24890063337545965,0.18232080717515167,0.083343505859375,-0.2371673583984375,-1.04046630859375,38.027069091796875,17.411102294921875,-75.57638549804688,,,,,,,,,,
0,2018-10-30 16:38:58.8220,00:23,60,0,2018-10-30 16:39:03.5450,1540931943.5450149,0.07629184206360895,0.20274512220718738,0.23689217370418336,0.08306884765625,-0.2118072509765625,-1.091156005859375,38.027069091796875,17.411102294921875,-75.57638549804688,,,,,,,,,,
0,2018-10-30 16:38:58.8220,00:23,60,0,2018-10-30 16:39:03.5620,1540931943.561647,-0.03272305926213062,0.05127170993842351,0.23994415631341418,0.104522705078125,-0.17169189453125,-1.1575775146484375,38.08235168457031,17.789382934570312,-75.2470703125,,,,,,,,,,
0,2018-10-30 16:38:58.8220,00:23,60,0,2018-10-30 16:39:03.5780,1540931943.5783849,-0.18149389565668206,-0.057808705150132006,0.2858924735488783,0.140380859375,-0.1559906005859375,-1.2128143310546875,38.16279602050781,18.006393432617188,-75.31263732910156,,,,,,,,,,
0,2018-10-30 16:38:58.8220,00:23,60,0,2018-10-30 16:39:03.5950,1540931943.595076,-0.24046080956488955,-0.14190813658152626,0.36076325285482097,0.161285400390625,-0.1603546142578125,-1.2852935791015625,38.54606628417969,17.852432250976562,-75.53170776367188,,,,,,,,,,
0,2018-10-30 16:38:58.8220,00:23,60,0,2018-10-30 16:39:03.6120,1540931943.611682,-0.1470722722512989,-0.1627404478925621,0.47743900337228246,0.186370849609375,-0.152313232421875,-1.3568572998046875,38.81983947753906,17.64239501953125,-75.75881958007812,,,,,,,,,,
0,2018-10-30 16:38:58.8220,00:23,60,0,2018-10-30 16:39:03.6280,1540931943.6284242,0.09536646705519249,-0.14072595937364007,0.6112655113098543,0.22564697265625,-0.1257781982421875,-1.4185028076171875,38.75360107421875,17.344924926757812,-75.6954345703125,,,,,,,,,,
0,2018-10-30 16:38:58.8220,00:23,60,0,2018-10-30 16:39:03.6450,1540931943.645086,0.32090878082567614,-0.01572356939193683,0.7270184765096033,0.23919677734375,-0.0730438232421875,-1.4094390869140625,38.75360107421875,17.344924926757812,-75.6954345703125,,,,,,,,,,
0,2018-10-30 16:38:58.8220,00:23,60,0,2018-10-30 16:39:03.6620,1540931943.6617432,0.38787556433237264,0.2541345438657924,0.7027054136538339,0.171051025390625,-0.04254150390625,-1.323822021484375,38.90824890136719,17.159774780273438,-75.38168334960938,,,,,,,,,,
0,2018-10-30 16:38:58.8220,00:23,60,0,2018-10-30 16:39:03.6780,1540931943.678421,0.3301997509206356,0.6000128567559424,0.6303273531282054,0.106689453125,-0.0910491943359375,-1.254486083984375,39.28303527832031,17.396148681640625,-75.50860595703125,,,,,,,,,,
0,2018-10-30 16:38:58.8220,00:23,60,0,2018-10-30 16:39:03.6950,1540931943.695094,0.25940707019193127,0.690538762213807,0.6122514135454016,0.1184234619140625,-0.121734619140625,-1.2544403076171875,40.10107421875,17.156906127929688,-75.4730224609375,,,,,,,,,,
0,2018-10-30 16:38:58.8220,00:23,60,0,2018-10-30 16:39:03.7120,1540931943.7116919,0.22664353088123143,0.4615777485519885,0.6055516991910892,0.1623382568359375,-0.096954345703125,-1.275543212890625,40.727935791015625,16.644500732421875,-75.53605651855469,,,,,,,,,,
0,2018-10-30 16:38:58.8220,00:23,60,0,2018-10-30 16:39:03.7280,1540931943.72844,0.20645517192177676,0.10290853926229689,0.5472875934945537,0.1646881103515625,-0.0658416748046875,-1.2398681640625,40.987518310546875,16.51495361328125,-75.76092529296875,,,,,,,,,,
0,2018-10-30 16:38:58.8220,00:23,60,0,2018-10-30 16:39:03.7460,1540931943.7462,0.17346766076340125,-0.28247670313474266,0.43866311158461974,0.1456298828125,-0.0457763671875,-1.1339569091796875,40.86138916015625,16.229888916015625,-75.46617126464844,,,,,,,,,,
0,2018-10-30 16:38:58.8220,00:23,60,0,2018-10-30 16:39:03.7630,1540931943.762867,0.16158863072110283,-0.6744042670656708,0.29254531626800523,0.0985870361328125,-0.0694732666015625,-0.8643798828125,40.86138916015625,16.229888916015625,-75.46617126464844,,,,,,,,,,
0,2018-10-30 16:38:58.8220,00:23,60,0,2018-10-30 16:39:03.7780,1540931943.7784982,0.17216590762257053,-0.9227147439435689,0.15195358021330513,0.0985870361328125,-0.0694732666015625,-0.8643798828125,40.27142333984375,16.190994262695312,-75.49972534179688,,,,,,,,,,
0,2018-10-30 16:38:58.8220,00:23,60,0,2018-10-30 16:39:03.7950,1540931943.79523,0.16192845007619694,-0.9071869168917529,0.08022746152252805,0.078948974609375,-0.11578369140625,-0.71856689453125,39.59368896484375,16.63482666015625,-75.83229064941406,,,,,,,,,,
0,2018-10-30 16:38:58.8220,00:23,60,0,2018-10-30 16:39:03.8150,1540931943.8148441,0.12005556825688106,-0.6590407570531127,0.06662243677774925,0.0058135986328125,-0.19610595703125,-0.560272216796875,39.42515563964844,15.890838623046875,-76.02529907226562,,,,,,,,,,
0,2018-10-30 16:38:58.8220,00:23,60,0,2018-10-30 16:39:03.8300,1540931943.829788,0.059223908953400115,-0.2971736239264539,0.06065828751651679,0.0058135986328125,-0.19610595703125,-0.560272216796875,39.48765563964844,15.878692626953125,-75.94429016113281,,,,,,,,,,
0,2018-10-30 16:38:58.8220,00:23,60,0,2018-10-30 16:39:03.8460,1540931943.8463302,-0.00865846933606562,0.0018093516445998345,0.10923221527069003,0.016815185546875,-0.2160186767578125,-0.5388336181640625,39.48699951171875,15.878631591796875,-76.02238464355469,,,,,,,,,,
0,2018-10-30 16:38:58.8220,00:23,60,0,2018-10-30 16:39:03.8620,1540931943.862073,-0.07162438593713608,0.06991250598843314,0.26996064495969724,0.0635528564453125,-0.227935791015625,-0.627105712890625,39.48699951171875,15.878631591796875,-76.02238464355469,,,,,,,,,,
0,2018-10-30 16:38:58.8220,00:23,60,0,2018-10-30 16:39:03.8790,1540931943.878614,-0.07162438593713608,0.06991250598843314,0.26996064495969724,0.0635528564453125,-0.227935791015625,-0.627105712890625,39.56217956542969,16.486251831054688,-75.60536193847656,,,,,,,,,,
0,2018-10-30 16:38:58.8220,00:23,60,0,2018-10-30 16:39:03.8950,1540931943.895314,-0.1283683592834544,-0.01187796477786241,0.3030701288959984,0.0044708251953125,-0.213409423828125,-0.684844970703125,39.8687744140625,16.424942016601562,-75.90321350097656,,,,,,,,,,
0,2018-10-30 16:38:58.8220,00:23,60,0,2018-10-30 16:39:03.9140,1540931943.913597,-0.30250101137104846,-0.1622765252306703,0.1936986303002972,-0.0093994140625,-0.2079925537109375,-0.723236083984375,39.794036865234375,16.51776123046875,-75.7476806640625,,,,,,,,,,
0,2018-10-30 16:38:58.8220,00:23,60,0,2018-10-30 16:39:03.9290,1540931943.9287639,-0.30250101137104846,-0.1622765252306703,0.1936986303002972,-0.0093994140625,-0.2079925537109375,-0.723236083984375,39.99945068359375,16.710464477539062,-75.65129089355469,,,,,,,,,,
0,2018-10-30 16:38:58.8220,00:23,60,0,2018-10-30 16:39:03.9450,1540931943.9447699,-0.328198385361441,-0.2233260311113197,0.10474798462721462,-0.0262451171875,-0.188018798828125,-0.8175506591796875,40.16375732421875,16.444381713867188,-75.88644409179688,,,,,,,,,,
0,2018-10-30 16:38:58.8220,00:23,60,0,2018-10-30 16:39:03.9620,1540931943.961719,-0.2984048032983976,-0.11174783723637888,-0.00970376006392172,-0.0262451171875,-0.188018798828125,-0.8175506591796875,40.16375732421875,16.444381713867188,-75.88644409179688,,,,,,,,,,
0,2018-10-30 16:38:58.8220,00:23,60,0,2018-10-30 16:39:03.9790,1540931943.978582,-0.2223843373498677,0.09452544078294546,-0.11334120651657328,-0.0199432373046875,-0.1772613525390625,-0.8911590576171875,40.17646789550781,17.064132690429688,-75.55043029785156,,,,,,,,,,
0,2018-10-30 16:38:58.8220,00:23,60,0,2018-10-30 16:39:03.9950,1540931943.9949942,0.05405045221981219,-0.008524778649343642,-0.16172365298836983,0.047576904296875,-0.258087158203125,-1.1141815185546875,40.182830810546875,17.3740234375,-75.38243103027344,,,,,,,,,,
0,2018-10-30 16:38:58.8220,00:23,60,0,2018-10-30 16:39:04.0120,1540931944.011856,0.05405045221981219,-0.008524778649343642,-0.16172365298836983,0.047576904296875,-0.258087158203125,-1.1141815185546875,40.30584716796875,17.349533081054688,-75.4547119140625,,,,,,,,,,
0,2018-10-30 16:38:58.8220,00:23,60,0,2018-10-30 16:39:04.0280,1540931944.0284638,0.17627596413288982,-0.15098179273153522,-0.2636606710850058,0.0059814453125,-0.2653961181640625,-1.171478271484375,40.44960021972656,16.85406494140625,-75.85565185546875,,,,,,,,,,
0,2018-10-30 16:38:58.8220,00:23,60,0,2018-10-30 16:39:04.0450,1540931944.045247,0.15910230352740484,-0.12396295820824532,-0.4874333143111318,0.008148193359375,-0.2861175537109375,-1.1694488525390625,40.31108093261719,16.95892333984375,-75.93733215332031,,,,,,,,,,
0,2018-10-30 16:38:58.8220,00:23,60,0,2018-10-30 16:39:04.0610,1540931944.0611382,0.15910230352740484,-0.12396295820824532,-0.4874333143111318,0.008148193359375,-0.2861175537109375,-1.1694488525390625,40.31108093261719,16.95892333984375,-75.93733215332031,,,,,,,,,,
0,2018-10-30 16:38:58.8220,00:23,60,0,2018-10-30 16:39:04.0780,1540931944.077642,0.026992469228498118,0.080360619577032,-0.4154017310433226,0.0634918212890625,-0.3256988525390625,-1.30511474609375,40.28593444824219,17.120223999023438,-75.54238891601562,,,,,,,,,,
0,2018-10-30 16:38:58.8220,00:23,60,0,2018-10-30 16:39:04.0950,1540931944.094883,0.09124149684276875,0.18781490850398513,-0.39279655339462105,0.0461578369140625,-0.2656402587890625,-1.4340057373046875,40.192474365234375,17.2930908203125,-75.93135070800781,,,,,,,,,,
0,2018-10-30 16:38:58.8220,00:23,60,0,2018-10-30 16:39:04.1130,1540931944.113128,0.3745515030825972,-0.09561733682987794,-0.5195760707717342,0.0293731689453125,-0.1939544677734375,-1.51861572265625,40.567901611328125,17.529525756835938,-75.98016357421875,,,,,,,,,,
0,2018-10-30 16:38:58.8220,00:23,60,0,2018-10-30 16:39:04.1300,1540931944.129929,0.5151959697268809,-0.2881508341532655,-0.5851699947364948,0.0304107666015625,-0.153472900390625,-1.44207763671875,40.505584716796875,16.841278076171875,-76.55560302734375,,,,,,,,,,
0,2018-10-30 16:38:58.8220,00:23,60,0,2018-10-30 16:39:04.1450,1540931944.14523,0.4150922717246554,-0.26901255961162907,-0.5326500611951511,0.02691650390625,-0.203033447265625,-1.2857208251953125,40.16294860839844,16.753555297851562,-76.57749938964844,,,,,,,,,,
0,2018-10-30 16:38:58.8220,00:23,60,0,2018-10-30 16:39:04.1620,1540931944.162122,0.4150922717246554,-0.26901255961162907,-0.5326500611951511,0.02276611328125,-0.2352752685546875,-1.150238037109375,40.004547119140625,16.629074096679688,-76.74688720703125,,,,,,,,,,
0,2018-10-30 16:38:58.8220,00:23,60,0,2018-10-30 16:39:04.1790,1540931944.178681,-0.07337488172164515,0.06713882371311561,-0.3843388864047474,0.01025390625,-0.160003662109375,-1.1046295166015625,40.004547119140625,16.629074096679688,-76.74688720703125,,,,,,,,,,
0,2018-10-30 16:38:58.8220,00:23,60,0,2018-10-30 16:39:04.1950,1540931944.195432,-0.07618185351058868,-0.02444116090420221,-0.4669075328415641,0.009979248046875,-0.045196533203125,-1.1139678955078125,39.8658447265625,17.434310913085938,-76.33415222167969,,,,,,,,,,
0,2018-10-30 16:38:58.8220,00:23,60,0,2018-10-30 16:39:04.2120,1540931944.212049,-0.07618185351058868,-0.02444116090420221,-0.4669075328415641,0.01922607421875,-0.000823974609375,-1.053131103515625,39.74217224121094,17.458740234375,-76.3399658203125,,,,,,,,,,
0,2018-10-30 16:38:58.8220,00:23,60,0,2018-10-30 16:39:04.2290,1540931944.22877,-0.047549675998928766,0.09439814168283966,-0.5010354095787115,0.0316314697265625,-0.027740478515625,-0.9820098876953125,39.6912841796875,17.39013671875,-76.735595703125,,,,,,,,,,
0,2018-10-30 16:38:58.8220,00:23,60,0,2018-10-30 16:39:04.2460,1540931944.245511,-0.08444617500532256,0.1053927359271228,-0.45710763266229054,0.0279541015625,-0.0560302734375,-0.94036865234375,40.07647705078125,17.236373901367188,-76.72035217285156,,,,,,,,,,
0,2018-10-30 16:38:58.8220,00:23,60,0,2018-10-30 16:39:04.2620,1540931944.262042,-0.11461419751763116,0.03861823265113003,-0.4561118767307099,0.0130157470703125,-0.0668792724609375,-0.9062652587890625,39.90321350097656,17.19232177734375,-76.965576171875,,,,,,,,,,
0,2018-10-30 16:38:58.8220,00:23,60,0,2018-10-30 16:39:04.2810,1540931944.280552,-0.13492000188115832,0.003244262839934528,-0.48720561403793006,0.001220703125,-0.073394775390625,-0.8537139892578125,39.59516906738281,17.953903198242188,-76.32952880859375,,,,,,,,,,
0,2018-10-30 16:38:58.8220,00:23,60,0,2018-10-30 16:39:04.2960,1540931944.2963362,-0.14499846871045421,0.05200913924426645,-0.4860721726779923,0.0077056884765625,-0.0939483642578125,-0.7925872802734375,39.59516906738281,17.953903198242188,-76.32952880859375,,,,,,,,,,
0,2018-10-30 16:38:58.8220,00:23,60,0,2018-10-30 16:39:04.3120,1540931944.312094,-0.14809971979985148,0.18372535833405945,-0.41844465890484717,0.0193939208984375,-0.1362457275390625,-0.758636474609375,39.351593017578125,18.312362670898438,-76.48554992675781,,,,,,,,,,
0,2018-10-30 16:38:58.8220,00:23,60,0,2018-10-30 16:39:04.3290,1540931944.328724,-0.0881343867989733,0.29216528318045093,-0.3615696580328969,0.014801025390625,-0.1475372314453125,-0.7685546875,39.508697509765625,18.436721801757812,-76.47236633300781,,,,,,,,,,
0,2018-10-30 16:38:58.8220,00:23,60,0,2018-10-30 16:39:04.3470,1540931944.3465772,0.013234312721039766,0.20453503277582963,-0.329576304909448,0.0260162353515625,-0.1311798095703125,-0.79327392578125,40.090362548828125,18.165512084960938,-76.84111022949219,,,,,,,,,,
0,2018-10-30 16:38:58.8220,00:23,60,0,2018-10-30 16:39:04.3630,1540931944.363371,0.08023118994805416,0.04913186000254484,-0.30729603291373614,0.0296630859375,-0.1280059814453125,-0.786712646484375,40.056915283203125,18.016754150390625,-76.84846496582031,,,,,,,,,,
0,2018-10-30 16:38:58.8220,00:23,60,0,2018-10-30 16:39:04.3790,1540931944.3788261,0.023251526845263812,-0.05327547234259913,-0.25707813581865696,0.030426025390625,-0.14251708984375,-0.738861083984375,39.679351806640625,18.480514526367188,-76.53950500488281,,,,,,,,,,
0,2018-10-30 16:38:58.8220,00:23,60,0,2018-10-30 16:39:04.3950,1540931944.395482,-0.1077621503489663,-0.0769592302327828,-0.24101288285886296,-0.001953125,-0.15997314453125,-0.7108001708984375,39.679351806640625,18.480514526367188,-76.53950500488281,,,,,,,,,,
0,2018-10-30 16:38:58.8220,00:23,60,0,2018-10-30 16:39:04.4120,1540931944.4121509,-0.23571905124400344,-0.11787097721468907,-0.2517411609941382,-0.0284576416015625,-0.1783447265625,-0.72918701171875,39.270172119140625,19.104949951171875,-76.61659240722656,,,,,,,,,,
0,2018-10-30 16:38:58.8220,00:23,60,0,2018-10-30 16:39:04.4290,1540931944.4292789,-0.2613525093682341,-0.1639242229971023,-0.3042640240126809,-0.0421142578125,-0.182769775390625,-0.78131103515625,38.966033935546875,19.475753784179688,-76.61933898925781,,,,,,,,,,
0,2018-10-30 16:38:58.8220,00:23,60,0,2018-10-30 16:39:04.4450,1540931944.44454,-0.20496566592409543,-0.1210382746991203,-0.34491744436884947,-0.0409698486328125,-0.174072265625,-0.8222503662109375,39.252716064453125,19.18511962890625,-77.00483703613281,,,,,,,,,,
0,2018-10-30 16:38:58.8220,00:23,60,0,2018-10-30 16:39:04.4610,1540931944.461122,-0.15308276051549874,0.01681120438112519,-0.32013007252293696,-0.021575927734375,-0.191162109375,-0.8672943115234375,39.27391052246094,19.414581298828125,-76.76095581054688,,,,,,,,,,
0,2018-10-30 16:38:58.8220,00:23,60,0,2018-10-30 16:39:04.4780,1540931944.477912,-0.11908404709122015,0.06903819020256012,-0.20870421146234866,0.0052490234375,-0.230194091796875,-0.9415130615234375,39.10505676269531,19.68023681640625,-77.07249450683594,,,,,,,,,,
0,2018-10-30 16:38:58.8220,00:23,60,0,2018-10-30 16:39:04.4940,1540931944.4944692,-0.1049088395570554,0.0412792632123372,-0.06310466729386358,0.0325775146484375,-0.264923095703125,-1.0216522216796875,39.10505676269531,19.68023681640625,-77.07249450683594,,,,,,,,,,
0,2018-10-30 16:38:58.8220,00:23,60,0,2018-10-30 16:39:04.5110,1540931944.5110478,-0.0794495521681159,0.0785185110510242,0.030100111904511583,0.038177490234375,-0.2567138671875,-1.0706024169921875,38.83763122558594,20.20013427734375,-76.67739868164062,,,,,,,,,,
0,2018-10-30 16:38:58.8220,00:23,60,0,2018-10-30 16:39:04.5280,1540931944.5278401,-0.0442100719919694,0.249886269294898,0.09776730677789891,0.01702880859375,-0.224212646484375,-1.1079864501953125,38.980560302734375,20.40496826171875,-76.66200256347656,,,,,,,,,,
0,2018-10-30 16:38:58.8220,00:23,60,0,2018-10-30 16:39:04.5440,1540931944.544437,-0.02163072700584159,0.4107308128074327,0.12259009866630947,0.0012054443359375,-0.19342041015625,-1.1752777099609375,39.49662780761719,19.836349487304688,-76.88925170898438,,,,,,,,,,
0,2018-10-30 16:38:58.8220,00:23,60,0,2018-10-30 16:39:04.5610,1540931944.561172,-0.05137797006591767,0.28116323208511557,0.13742949857634,0.0217132568359375,-0.194000244140625,-1.2819061279296875,39.948089599609375,19.980087280273438,-76.93740844726562,,,,,,,,,,
0,2018-10-30 16:38:58.8220,00:23,60,0,2018-10-30 16:39:04.5780,1540931944.577845,-0.18637333940592524,-0.038988944674869054,0.18953930530981145,0.0753173828125,-0.1975555419921875,-1.3531951904296875,39.83598327636719,19.923751831054688,-77.25782775878906,,,,,,,,,,
0,2018-10-30 16:38:58.8220,00:23,60,0,2018-10-30 16:39:04.5950,1540931944.594526,-0.3104883641124141,-0.4413193484558648,0.20941927021503495,0.126495361328125,-0.17694091796875,-1.3693389892578125,39.83598327636719,19.923751831054688,-77.25782775878906,,,,,,,,,,
0,2018-10-30 16:38:58.8220,00:23,60,0,2018-10-30 16:39:04.6110,1540931944.611085,-0.34412328973178785,-0.656125394607803,0.1813199912374999,0.115509033203125,-0.155120849609375,-1.33306884765625,39.03895568847656,21.09283447265625,-76.55516052246094,,,,,,,,,,
0,2018-10-30 16:38:58.8220,00:23,60,0,2018-10-30 16:39:04.6280,1540931944.6279979,-0.2777309500722214,-0.4468190424229874,0.1537197886482457,0.0873870849609375,-0.1417388916015625,-1.2355804443359375,38.60350036621094,21.178054809570312,-76.88787841796875,,,,,,,,,,
0,2018-10-30 16:38:58.8220,00:23,60,0,2018-10-30 16:39:04.6440,1540931944.644495,-0.06784988772416677,-0.10713923696999676,0.1776472257781716,0.0860443115234375,-0.145782470703125,-1.2081756591796875,38.54542541503906,21.499908447265625,-77.03518676757812,,,,,,,,,,
0,2018-10-30 16:38:58.8220,00:23,60,0,2018-10-30 16:39:04.6620,1540931944.661907,0.21261852563254713,0.12357786511461986,0.23247825051348603,0.1057586669921875,-0.1433258056640625,-1.2147064208984375,38.73371887207031,20.763107299804688,-77.20849609375,,,,,,,,,,
0,2018-10-30 16:38:58.8220,00:23,60,0,2018-10-30 16:39:04.6780,1540931944.677618,0.49105175128422246,0.013933126191076558,0.20550442341261846,0.1219329833984375,-0.089508056640625,-1.1620941162109375,38.71775817871094,20.143051147460938,-77.93498229980469,,,,,,,,,,
0,2018-10-30 16:38:58.8220,00:23,60,0,2018-10-30 16:39:04.6950,1540931944.695004,0.6146916680522412,-0.1829306710647798,0.1816728600819354,0.1219329833984375,-0.089508056640625,-1.1620941162109375,38.71775817871094,20.143051147460938,-77.93498229980469,,,,,,,,,,
0,2018-10-30 16:38:58.8220,00:23,60,0,2018-10-30 16:39:04.7130,1540931944.713228,0.5097386200210905,-0.2339733491494565,0.214831878814512,0.1217803955078125,-0.1113128662109375,-1.0312347412109375,38.625732421875,20.006790161132812,-77.55476379394531,,,,,,,,,,
0,2018-10-30 16:38:58.8220,00:23,60,0,2018-10-30 16:39:04.7300,1540931944.7301831,0.2854562477623233,-0.1919638471662196,0.2556304414500899,0.10418701171875,-0.1510162353515625,-0.873321533203125,37.925628662109375,19.911773681640625,-77.6744384765625,,,,,,,,,,
0,2018-10-30 16:38:58.8220,00:23,60,0,2018-10-30 16:39:04.7460,1540931944.745636,0.06352784359107717,-0.12296240858670256,0.30288690341300095,0.10418701171875,-0.1510162353515625,-0.873321533203125,38.00605773925781,20.128768920898438,-77.74005126953125,,,,,,,,,,
0,2018-10-30 16:38:58.8220,00:23,60,0,2018-10-30 16:39:04.7610,1540931944.761482,-0.07335011432350742,-0.09580136126120242,0.33079576637259533,0.1014862060546875,-0.14251708984375,-0.8584136962890625,37.950775146484375,19.750457763671875,-78.06938171386719,,,,,,,,,,
0,2018-10-30 16:38:58.8220,00:23,60,0,2018-10-30 16:39:04.7790,1540931944.778605,-0.025732261400672623,-0.1839416070145739,0.34888022807088737,0.097900390625,-0.1207275390625,-0.8366851806640625,38.21165466308594,19.621063232421875,-78.1380615234375,,,,,,,,,,
0,2018-10-30 16:38:58.8220,00:23,60,0,2018-10-30 16:39:04.7960,1540931944.7957711,-0.025732261400672623,-0.1839416070145739,0.34888022807088737,0.097900390625,-0.1207275390625,-0.8366851806640625,38.1021728515625,19.56500244140625,-78.14610290527344,,,,,,,,,,
0,2018-10-30 16:38:58.8220,00:23,60,0,2018-10-30 16:39:04.8120,1540931944.812395,-0.01929486841373309,-0.053291451309139606,0.3897325865604849,0.074371337890625,-0.1412200927734375,-0.7103729248046875,38.1021728515625,19.56500244140625,-78.14610290527344,,,,,,,,,,
0,2018-10-30 16:38:58.8220,00:23,60,0,2018-10-30 16:39:04.8290,1540931944.8290749,-0.13516368112090058,0.18884395394919176,0.4339644964733929,0.0528106689453125,-0.1478424072265625,-0.7337646484375,37.85011291503906,20.313796997070312,-78.21000671386719,,,,,,,,,,
0,2018-10-30 16:38:58.8220,00:23,60,0,2018-10-30 16:39:04.8460,1540931944.84564,-0.13516368112090058,0.18884395394919176,0.4339644964733929,0.0528106689453125,-0.1478424072265625,-0.7337646484375,38.22370910644531,20.240798950195312,-77.88015747070312,,,,,,,,,,
0,2018-10-30 16:38:58.8220,00:23,60,0,2018-10-30 16:39:04.8620,1540931944.8624492,-0.1105888295299764,0.10332372607624024,0.39316034119952586,0.0181427001953125,-0.1196441650390625,-0.7711029052734375,38.35588073730469,19.826065063476562,-77.96647644042969,,,,,,,,,,
0,2018-10-30 16:38:58.8220,00:23,60,0,2018-10-30 16:39:04.8790,1540931944.8791342,-0.14169002368824876,-0.11606215820230725,0.15195331389719613,0.001220703125,-0.139801025390625,-0.7450714111328125,38.352630615234375,19.82574462890625,-78.35694885253906,,,,,,,,,,
0,2018-10-30 16:38:58.8220,00:23,60,0,2018-10-30 16:39:04.8960,1540931944.895807,-0.14169002368824876,-0.11606215820230725,0.15195331389719613,0.001220703125,-0.139801025390625,-0.7450714111328125,38.27528381347656,19.918304443359375,-78.51380920410156,,,,,,,,,,
0,2018-10-30 16:38:58.8220,00:23,60,0,2018-10-30 16:39:04.9120,1540931944.91227,-0.14488262120303574,0.17446528090774494,-0.004033357470925006,0.0013580322265625,-0.2123870849609375,-0.76593017578125,38.27528381347656,19.918304443359375,-78.51380920410156,,,,,,,,,,
0,2018-10-30 16:38:58.8220,00:23,60,0,2018-10-30 16:39:04.9290,1540931944.9290838,0.005960154519597335,0.6059011059261077,-0.06350573935402952,-0.0053558349609375,-0.2232666015625,-0.8233795166015625,38.21392822265625,20.6309814453125,-77.94422912597656,,,,,,,,,,
0,2018-10-30 16:38:58.8220,00:23,60,0,2018-10-30 16:39:04.9470,1540931944.946923,0.005960154519597335,0.6059011059261077,-0.06350573935402952,-0.0072784423828125,-0.2468719482421875,-0.9454345703125,38.24931335449219,20.779922485351562,-77.70257568359375,,,,,,,,,,
0,2018-10-30 16:38:58.8220,00:23,60,0,2018-10-30 16:39:04.9620,1540931944.96242,0.5734057469371788,0.9424016296697617,-0.10284915076998812,0.029083251953125,-0.263458251953125,-1.091156005859375,39.09382629394531,20.3795166015625,-77.90571594238281,,,,,,,,,,
0,2018-10-30 16:38:58.8220,00:23,60,0,2018-10-30 16:39:04.9790,1540931944.9791598,0.6222499855419951,0.6371160170629264,-0.1524971313917903,0.089874267578125,-0.2688446044921875,-1.1643829345703125,39.75559997558594,19.31561279296875,-78.29962158203125,,,,,,,,,,
0,2018-10-30 16:38:58.8220,00:23,60,0,2018-10-30 16:39:04.9960,1540931944.995902,0.6222499855419951,0.6371160170629264,-0.1524971313917903,0.1541900634765625,-0.2744140625,-1.1692352294921875,39.82215881347656,18.60345458984375,-78.24447631835938,,,,,,,,,,
0,2018-10-30 16:38:58.8220,00:23,60,0,2018-10-30 16:39:05.0120,1540931945.012381,0.015441806948606447,-0.21530911728185417,-0.2904728443077056,0.196807861328125,-0.293731689453125,-1.1826934814453125,39.36598205566406,19.159683227539062,-78.24858093261719,,,,,,,,,,
0,2018-10-30 16:38:58.8220,00:23,60,0,2018-10-30 16:39:05.0290,1540931945.0291328,-0.2374319964571424,-0.29206647990400897,-0.2337509751984349,0.19384765625,-0.3237762451171875,-1.2253875732421875,39.36598205566406,19.159683227539062,-78.24858093261719,,,,,,,,,,
0,2018-10-30 16:38:58.8220,00:23,60,0,2018-10-30 16:39:05.0460,1540931945.045964,-0.2505800227588636,-0.21759197896827012,-0.1629790671262332,0.172210693359375,-0.3172454833984375,-1.3239593505859375,38.87831115722656,19.567306518554688,-78.02574157714844,,,,,,,,,,
0,2018-10-30 16:38:58.8220,00:23,60,0,2018-10-30 16:39:05.0630,1540931945.062597,-0.06967415307087105,-0.14913515683167428,-0.13509577051310356,0.167633056640625,-0.25653076171875,-1.423858642578125,38.5413818359375,19.7894287109375,-77.95774841308594,,,,,,,,,,
0,2018-10-30 16:38:58.8220,00:23,60,0,2018-10-30 16:39:05.0790,1540931945.079352,0.21036522503423108,-0.3128457943093522,-0.16963270879368716,0.159759521484375,-0.2012481689453125,-1.4934539794921875,38.34187316894531,19.206146240234375,-78.45866394042969,,,,,,,,,,
0,2018-10-30 16:38:58.8220,00:23,60,0,2018-10-30 16:39:05.0960,1540931945.095924,0.33939111879082606,-0.49786358472042713,-0.19345095631891984,0.148681640625,-0.182159423828125,-1.4339599609375,38.0894775390625,18.945220947265625,-78.48210144042969,,,,,,,,,,
0,2018-10-30 16:38:58.8220,00:23,60,0,2018-10-30 16:39:05.1120,1540931945.1123881,0.22045594240454133,-0.5779669429361575,-0.16246614230028392,0.1001129150390625,-0.2191314697265625,-1.2947540283203125,37.517608642578125,18.826263427734375,-78.04930114746094,,,,,,,,,,
0,2018-10-30 16:38:58.8220,00:23,60,0,2018-10-30 16:39:05.1290,1540931945.129102,-0.09752016542873956,-0.500785072436244,-0.037003558082214984,0.058807373046875,-0.2415924072265625,-1.172027587890625,37.517608642578125,18.826263427734375,-78.04930114746094,,,,,,,,,,
0,2018-10-30 16:38:58.8220,00:23,60,0,2018-10-30 16:39:05.1460,1540931945.145803,-0.3958392149400366,-0.4808044400418156,0.010210825935472807,0.0238800048828125,-0.1840972900390625,-1.1137237548828125,36.53898620605469,19.641204833984375,-77.994140625,,,,,,,,,,
0,2018-10-30 16:38:58.8220,00:23,60,0,2018-10-30 16:39:05.1640,1540931945.163501,-0.5057742384223985,-0.6384073838755058,-0.07455519471676827,-0.0160369873046875,-0.06494140625,-1.1206207275390625,36.05064392089844,20.04876708984375,-77.84939575195312,,,,,,,,,,
0,2018-10-30 16:38:58.8220,00:23,60,0,2018-10-30 16:39:05.1790,1540931945.1792831,-0.5181076037466645,-0.6090170044015003,-0.0916497594378779,-0.032135009765625,0.0125732421875,-1.0561981201171875,35.55810546875,19.446273803710938,-78.1328125,,,,,,,,,,
0,2018-10-30 16:38:58.8220,00:23,60,0,2018-10-30 16:39:05.1960,1540931945.195931,-0.45949409131511054,-0.31023083643500343,-0.02704360192142764,-0.038055419921875,0.0275726318359375,-0.9724884033203125,35.556610107421875,20.146514892578125,-77.79457092285156,,,,,,,,,,
0,2018-10-30 16:38:58.8220,00:23,60,0,2018-10-30 16:39:05.2120,1540931945.212491,-0.38643745734372986,0.07690303753378212,0.08906942265770013,-0.0482940673828125,0.0269622802734375,-0.9274749755859375,35.419403076171875,20.251510620117188,-77.72007751464844,,,,,,,,,,
0,2018-10-30 16:38:58.8220,00:23,60,0,2018-10-30 16:39:05.2290,1540931945.229305,-0.2762241335274546,0.3485049886732952,0.06581896107687234,-0.0857086181640625,0.034271240234375,-0.930267333984375,35.419403076171875,20.251510620117188,-77.72007751464844,,,,,,,,,,
0,2018-10-30 16:38:58.8220,00:23,60,0,2018-10-30 16:39:05.2470,1540931945.246587,-0.12121031490553942,0.43930519972343784,-0.021917016823025107,-0.0944061279296875,0.0435333251953125,-0.9357452392578125,35.51383972167969,21.088394165039062,-77.29347229003906,,,,,,,,,,
0,2018-10-30 16:38:58.8220,00:23,60,0,2018-10-30 16:39:05.2630,1540931945.262689,0.04071946675120255,0.37211977069124585,-0.10877867893704954,-0.061553955078125,0.0200347900390625,-0.8982086181640625,35.48103332519531,20.939697265625,-77.22274780273438,,,,,,,,,,
0,2018-10-30 16:38:58.8220,00:23,60,0,2018-10-30 16:39:05.2790,1540931945.2790961,0.16408321371418003,0.24255831523943594,-0.1924954141197994,-0.0330963134765625,-0.0093841552734375,-0.8292388916015625,35.847015380859375,20.556671142578125,-77.21710205078125,,,,,,,,,,
0,2018-10-30 16:38:58.8220,00:23,60,0,2018-10-30 16:39:05.2970,1540931945.2974439,0.18321696088196335,0.14509407619358805,-0.20868317248973703,-0.0064697265625,-0.0493316650390625,-0.74908447265625,35.806549072265625,20.097930908203125,-77.47055053710938,,,,,,,,,,
0,2018-10-30 16:38:58.8220,00:23,60,0,2018-10-30 16:39:05.3130,1540931945.313239,0.1364718258483475,0.11408183161572433,-0.1851512147816879,-0.0041656494140625,-0.0893096923828125,-0.6818695068359375,35.89237976074219,19.61505126953125,-77.40579223632812,,,,,,,,,,
0,2018-10-30 16:38:58.8220,00:23,60,0,2018-10-30 16:39:05.3290,1540931945.329212,0.10163687984178404,0.11327888854706544,-0.17122261596446448,-0.02130126953125,-0.1224517822265625,-0.6538543701171875,35.89237976074219,19.61505126953125,-77.40579223632812,,,,,,,,,,
0,2018-10-30 16:38:58.8220,00:23,60,0,2018-10-30 16:39:05.3460,1540931945.3458219,0.11214038718105657,0.10779144512095716,-0.17658622239988406,-0.0457916259765625,-0.1380767822265625,-0.6684112548828125,35.553314208984375,20.537353515625,-77.07766723632812,,,,,,,,,,
0,2018-10-30 16:38:58.8220,00:23,60,0,2018-10-30 16:39:05.3620,1540931945.362396,0.13417777888535326,0.09357469227378717,-0.19053026755142993,-0.05511474609375,-0.1598358154296875,-0.6905364990234375,35.46717834472656,20.01055908203125,-77.10195922851562,,,,,,,,,,
0,2018-10-30 16:38:58.8220,00:23,60,0,2018-10-30 16:39:05.3800,1540931945.379605,0.12611852079455546,0.1219623915973778,-0.23761122719850475,-0.067718505859375,-0.2159271240234375,-0.7230377197265625,35.37042236328125,20.574249267578125,-76.77403259277344,,,,,,,,,,
0,2018-10-30 16:38:58.8220,00:23,60,0,2018-10-30 16:39:05.3960,1540931945.396008,0.12586552049099795,0.20418855551801032,-0.24286404613257703,-0.0602569580078125,-0.2661285400390625,-0.7730865478515625,35.64698791503906,19.664093017578125,-77.18313598632812,,,,,,,,,,
0,2018-10-30 16:38:58.8220,00:23,60,0,2018-10-30 16:39:05.4130,1540931945.412597,0.18445186867943308,0.19111589667513834,-0.0897610455927937,0.0042877197265625,-0.289154052734375,-0.845550537109375,35.73851013183594,19.491012573242188,-77.02848815917969,,,,,,,,,,
0,2018-10-30 16:38:58.8220,00:23,60,0,2018-10-30 16:39:05.4290,1540931945.429185,0.2517787115655083,0.12772121113856513,0.1842851547951941,0.061767578125,-0.304718017578125,-0.9209442138671875,36.15846252441406,19.486175537109375,-76.84971618652344,,,,,,,,,,
0,2018-10-30 16:38:58.8220,00:23,60,0,2018-10-30 16:39:05.4460,1540931945.445929,0.22893837679255272,0.11818656180386346,0.4594903628895844,0.064483642578125,-0.31121826171875,-0.9663238525390625,36.15846252441406,19.486175537109375,-76.84971618652344,,,,,,,,,,
0,2018-10-30 16:38:58.8220,00:23,60,0,2018-10-30 16:39:05.4640,1540931945.463788,0.17518593229872037,0.16338466656025225,0.6458890023258654,-0.009246826171875,-0.2183074951171875,-1.0541229248046875,36.05094909667969,19.430282592773438,-76.62347412109375,,,,,,,,,,
0,2018-10-30 16:38:58.8220,00:23,60,0,2018-10-30 16:39:05.4800,1540931945.4802709,0.15573819843841674,0.2411558946094002,0.718808217184998,-0.009246826171875,-0.2183074951171875,-1.0541229248046875,36.4560546875,19.505874633789062,-76.52055358886719,,,,,,,,,,
0,2018-10-30 16:38:58.8220,00:23,60,0,2018-10-30 16:39:05.4960,1540931945.496012,0.16198917014905073,0.23352034544803404,0.7198681552988495,-0.035552978515625,-0.16180419921875,-1.1364593505859375,36.88975524902344,18.720077514648438,-76.91651916503906,,,,,,,,,,
0,2018-10-30 16:38:58.8220,00:23,60,0,2018-10-30 16:39:05.5130,1540931945.512682,0.12352779768612637,0.17345647548682291,0.685535747789984,-0.0612030029296875,-0.108978271484375,-1.229248046875,37.565521240234375,18.276046752929688,-76.8182373046875,,,,,,,,,,
0,2018-10-30 16:38:58.8220,00:23,60,0,2018-10-30 16:39:05.5290,1540931945.5294108,0.029564816525405654,0.13692616113031503,0.579497994246844,-0.0612030029296875,-0.108978271484375,-1.229248046875,37.594573974609375,18.115127563476562,-76.74458312988281,,,,,,,,,,
0,2018-10-30 16:38:58.8220,00:23,60,0,2018-10-30 16:39:05.5460,1540931945.546431,-0.09572253169293607,0.11612607406846916,0.4017394483351071,-0.0586395263671875,-0.0674896240234375,-1.2581329345703125,37.594573974609375,18.115127563476562,-76.74458312988281,,,,,,,,,,
0,2018-10-30 16:38:58.8220,00:23,60,0,2018-10-30 16:39:05.5630,1540931945.5628572,-0.08407146823994842,-0.08562755326488171,-0.0236443431060505,-0.000701904296875,-0.0349884033203125,-1.3604278564453125,37.36692810058594,19.093673706054688,-76.17411804199219,,,,,,,,,,
0,2018-10-30 16:38:58.8220,00:23,60,0,2018-10-30 16:39:05.5800,1540931945.579505,-0.08407146823994842,-0.08562755326488171,-0.0236443431060505,-0.000701904296875,-0.0349884033203125,-1.3604278564453125,37.470062255859375,18.839874267578125,-76.33407592773438,,,,,,,,,,
0,2018-10-30 16:38:58.8220,00:23,60,0,2018-10-30 16:39:05.5960,1540931945.596096,-0.020517525670188465,-0.09102871027167142,-0.17787039867752025,0.0812835693359375,-0.08935546875,-1.2957916259765625,37.223358154296875,18.888778686523438,-76.26760864257812,,,,,,,,,,
0,2018-10-30 16:38:58.8220,00:23,60,0,2018-10-30 16:39:05.6130,1540931945.6128001,0.07230588886008735,0.03441443287043995,-0.12419491953919122,0.125640869140625,-0.14080810546875,-1.25238037109375,37.778594970703125,18.778762817382812,-76.39762878417969,,,,,,,,,,
0,2018-10-30 16:38:58.8220,00:23,60,0,2018-10-30 16:39:05.6290,1540931945.629243,0.07230588886008735,0.03441443287043995,-0.12419491953919122,0.125640869140625,-0.14080810546875,-1.25238037109375,37.61201477050781,18.034957885742188,-76.3563232421875,,,,,,,,,,
0,2018-10-30 16:38:58.8220,00:23,60,0,2018-10-30 16:39:05.6460,1540931945.6461,0.033868484846973704,0.01585193375647865,0.01179087941021682,0.1346893310546875,-0.1252288818359375,-1.1387939453125,37.61201477050781,18.034957885742188,-76.3563232421875,,,,,,,,,,
0,2018-10-30 16:38:58.8220,00:23,60,0,2018-10-30 16:39:05.6630,1540931945.662706,-0.14695695737609848,-0.16065093170128592,-0.04513898258018904,0.10760498046875,-0.0776824951171875,-1.0792694091796875,37.41783142089844,19.162277221679688,-75.77848815917969,,,,,,,,,,
0,2018-10-30 16:38:58.8220,00:23,60,0,2018-10-30 16:39:05.6790,1540931945.6793919,-0.14695695737609848,-0.16065093170128592,-0.04513898258018904,0.10760498046875,-0.0776824951171875,-1.0792694091796875,37.29350280761719,19.1866455078125,-75.86241149902344,,,,,,,,,,
0,2018-10-30 16:38:58.8220,00:23,60,0,2018-10-30 16:39:05.6970,1540931945.697252,-0.08790801810631657,-0.19522515423713063,-0.19618735433897624,0.1101226806640625,-0.061920166015625,-0.9841766357421875,37.03767395019531,19.62579345703125,-75.78190612792969,,,,,,,,,,
0,2018-10-30 16:38:58.8220,00:23,60,0,2018-10-30 16:39:05.7130,1540931945.712741,0.01175492673550075,-0.14310149906599076,-0.21649342501861243,0.1217041015625,-0.075927734375,-0.928497314453125,37.31048583984375,18.406021118164062,-76.04667663574219,,,,,,,,,,
0,2018-10-30 16:38:58.8220,00:23,60,0,2018-10-30 16:39:05.7290,1540931945.7294521,0.01175492673550075,-0.14310149906599076,-0.21649342501861243,0.129302978515625,-0.09130859375,-0.857513427734375,37.358123779296875,18.474319458007812,-76.04153442382812,,,,,,,,,,
0,2018-10-30 16:38:58.8220,00:23,60,0,2018-10-30 16:39:05.7460,1540931945.7460709,0.07151839212575092,0.05509680821210432,-0.15522420834803147,0.1376953125,-0.113433837890625,-0.78656005859375,37.30769348144531,19.106155395507812,-75.86463928222656,,,,,,,,,,
0,2018-10-30 16:38:58.8220,00:23,60,0,2018-10-30 16:39:05.7630,1540931945.762861,-0.005612345681232986,0.16798607629169116,-0.07046830770793268,0.1397705078125,-0.1443634033203125,-0.738800048828125,37.30769348144531,19.106155395507812,-75.86463928222656,,,,,,,,,,
0,2018-10-30 16:38:58.8220,00:23,60,0,2018-10-30 16:39:05.7790,1540931945.7793531,-0.005612345681232986,0.16798607629169116,-0.07046830770793268,0.135772705078125,-0.170562744140625,-0.7328033447265625,37.14533996582031,19.3724365234375,-75.39518737792969,,,,,,,,,,
0,2018-10-30 16:38:58.8220,00:23,60,0,2018-10-30 16:39:05.7960,1540931945.796201,-0.21575572939666046,0.05272233378418967,0.046164033283760536,0.11065673828125,-0.1634521484375,-0.783477783203125,37.28108215332031,19.96771240234375,-75.13148498535156,,,,,,,,,,
0,2018-10-30 16:38:58.8220,00:23,60,0,2018-10-30 16:39:05.8130,1540931945.812768,-0.17506742163021186,-0.22541048729652474,-0.012015383890110498,0.0911865234375,-0.1242523193359375,-0.8328857421875,37.6201171875,19.04541015625,-75.4595947265625,,,,,,,,,,
0,2018-10-30 16:38:58.8220,00:23,60,0,2018-10-30 16:39:05.8290,1540931945.829432,-0.08959246749579168,-0.4477937593819564,-0.054073888037404885,0.083740234375,-0.122528076171875,-0.85430908203125,37.63873291015625,19.274627685546875,-75.52812194824219,,,,,,,,,,
0,2018-10-30 16:38:58.8220,00:23,60,0,2018-10-30 16:39:05.8460,1540931945.846117,-0.04041453480638847,-0.4872080108829111,-0.05306348471982882,0.0819549560546875,-0.157562255859375,-0.842742919921875,37.22203063964844,19.279815673828125,-75.31640625,,,,,,,,,,
0,2018-10-30 16:38:58.8220,00:23,60,0,2018-10-30 16:39:05.8630,1540931945.862877,0.006374542385213664,-0.44867633096720866,-0.06373583647221236,0.0702056884765625,-0.1898345947265625,-0.824615478515625,37.22203063964844,19.279815673828125,-75.31640625,,,,,,,,,,
0,2018-10-30 16:38:58.8220,00:23,60,0,2018-10-30 16:39:05.8790,1540931945.879421,0.07547105581564652,-0.3898638804022258,-0.06046733886635811,0.05389404296875,-0.206695556640625,-0.8217010498046875,36.89585876464844,20.121490478515625,-75.14671325683594,,,,,,,,,,
0,2018-10-30 16:38:58.8220,00:23,60,0,2018-10-30 16:39:05.8960,1540931945.896153,0.10473653303452728,-0.29942239715091684,-0.027166107331571286,0.047088623046875,-0.2106781005859375,-0.812408447265625,36.589935302734375,20.182861328125,-74.77076721191406,,,,,,,,,,
0,2018-10-30 16:38:58.8220,00:23,60,0,2018-10-30 16:39:05.9140,1540931945.913775,0.07953637121965249,-0.18123796587592544,-0.038793734966966247,0.0249786376953125,-0.2243194580078125,-0.8274688720703125,36.6661376953125,19.3897705078125,-75.26451110839844,,,,,,,,,,
0,2018-10-30 16:38:58.8220,00:23,60,0,2018-10-30 16:39:05.9310,1540931945.9306378,0.04076234364475282,-0.06481228618482239,-0.11895541641056934,-0.010589599609375,-0.2357330322265625,-0.8577423095703125,37.14729309082031,19.372634887695312,-75.16091918945312,,,,,,,,,,
0,2018-10-30 16:38:58.8220,00:23,60,0,2018-10-30 16:39:05.9470,1540931945.947195,0.02796745250357613,0.004974784916268017,-0.22916501180131846,-0.0208892822265625,-0.2361907958984375,-0.9082794189453125,37.0655517578125,19.155517578125,-75.25151062011719,,,,,,,,,,
0,2018-10-30 16:38:58.8220,00:23,60,0,2018-10-30 16:39:05.9630,1540931945.962871,0.06373770068497542,-0.025272333480415937,-0.3245176304188425,0.002288818359375,-0.2344818115234375,-0.968505859375,37.0655517578125,19.155517578125,-75.25151062011719,,,,,,,,,,
0,2018-10-30 16:38:58.8220,00:23,60,0,2018-10-30 16:39:05.9800,1540931945.9795132,0.11229271999540909,-0.02882898511621676,-0.36308473037704303,0.0272979736328125,-0.2452850341796875,-1.0016937255859375,36.760589599609375,20.226654052734375,-74.83790588378906,,,,,,,,,,
0,2018-10-30 16:38:58.8220,00:23,60,0,2018-10-30 16:39:05.9960,1540931945.996103,0.09619257962533506,0.058807390558911724,-0.33084689906552484,0.0438079833984375,-0.2706298828125,-1.0096282958984375,36.53788757324219,19.804885864257812,-74.70960998535156,,,,,,,,,,
0,2018-10-30 16:38:58.8220,00:23,60,0,2018-10-30 16:39:06.0130,1540931946.012858,-0.00099282645438154,0.2651560360370853,-0.30808086648698246,0.0350341796875,-0.270416259765625,-1.0177764892578125,36.72715759277344,20.077865600585938,-74.84527587890625,,,,,,,,,,
0,2018-10-30 16:38:58.8220,00:23,60,0,2018-10-30 16:39:06.0300,1540931946.0295339,-0.14574841487342052,0.4557928300321184,-0.29924396535788156,0.028778076171875,-0.2565155029296875,-1.0655517578125,37.596282958984375,19.206863403320312,-74.90847778320312,,,,,,,,,,
0,2018-10-30 16:38:58.8220,00:23,60,0,2018-10-30 16:39:06.0460,1540931946.046279,-0.22258513969605967,0.5713308781318981,-0.3365631080292709,0.03253173828125,-0.227752685546875,-1.1585235595703125,37.78814697265625,19.4801025390625,-74.73176574707031,,,,,,,,,,
0,2018-10-30 16:38:58.8220,00:23,60,0,2018-10-30 16:39:06.0630,1540931946.0629358,-0.16685210229953543,0.43045231962779645,-0.4031437331779059,0.0644073486328125,-0.18511962890625,-1.2927703857421875,37.92829895019531,20.385086059570312,-74.5343017578125,,,,,,,,,,
0,2018-10-30 16:38:58.8220,00:23,60,0,2018-10-30 16:39:06.0800,1540931946.079557,-0.1232194036318952,0.23882855813277998,-0.46335887068903353,0.0974884033203125,-0.1435546875,-1.3614044189453125,37.92829895019531,20.385086059570312,-74.5343017578125,,,,,,,,,,
0,2018-10-30 16:38:58.8220,00:23,60,0,2018-10-30 16:39:06.0960,1540931946.096309,-0.15600664507629675,0.11695138769028471,-0.4709973493275988,0.116302490234375,-0.132781982421875,-1.349365234375,37.577178955078125,20.687667846679688,-74.46409606933594,,,,,,,,,,
0,2018-10-30 16:38:58.8220,00:23,60,0,2018-10-30 16:39:06.1130,1540931946.112835,-0.23535899186462475,0.12253417228341781,-0.32426329853473995,0.1366424560546875,-0.1667938232421875,-1.3338165283203125,37.91259765625,21.165847778320312,-74.19384765625,,,,,,,,,,
0,2018-10-30 16:38:58.8220,00:23,60,0,2018-10-30 16:39:06.1300,1540931946.130279,-0.35860902184905585,0.40194557700347927,-0.11721264379322148,0.1375885009765625,-0.145294189453125,-1.2847442626953125,38.426239013671875,20.2877197265625,-74.12054443359375,,,,,,,,,,
0,2018-10-30 16:38:58.8220,00:23,60,0,2018-10-30 16:39:06.1460,1540931946.146469,-0.320602250984208,0.42718382202194216,-0.028309136071433295,0.106536865234375,-0.06622314453125,-1.3419036865234375,38.91618347167969,20.889984130859375,-74.1495361328125,,,,,,,,,,
0,2018-10-30 16:38:58.8220,00:23,60,0,2018-10-30 16:39:06.1640,1540931946.1642098,-0.10855390814104685,0.19304802004599084,-0.14001862378811503,0.059967041015625,0.024139404296875,-1.3714752197265625,39.01976013183594,21.336624145507812,-73.73696899414062,,,,,,,,,,
0,2018-10-30 16:38:58.8220,00:23,60,0,2018-10-30 16:39:06.1800,1540931946.179634,0.14462269668064404,-0.0712321023085674,-0.3856329163784169,0.0148162841796875,0.0877532958984375,-1.298583984375,39.01976013183594,21.336624145507812,-73.73696899414062,,,,,,,,,,
0,2018-10-30 16:38:58.8220,00:23,60,0,2018-10-30 16:39:06.1960,1540931946.196395,0.29759866443643057,-0.10123128040776498,-0.5538320455573144,0.0098114013671875,0.0656890869140625,-1.122955322265625,38.29698181152344,21.71240234375,-73.76229858398438,,,,,,,,,,
0,2018-10-30 16:38:58.8220,00:23,60,0,2018-10-30 16:39:06.2130,1540931946.213004,0.3599682992694323,0.02791179243679347,-0.5408374173343817,0.0418853759765625,-0.019561767578125,-0.9522552490234375,38.08308410644531,21.910018920898438,-73.76657104492188,,,,,,,,,,
0,2018-10-30 16:38:58.8220,00:23,60,0,2018-10-30 16:39:06.2300,1540931946.229601,0.33841746709629306,0.11634365432952862,-0.42399921399042545,0.0723876953125,-0.1032867431640625,-0.84967041015625,38.346771240234375,21.08050537109375,-74.01730346679688,,,,,,,,,,
0,2018-10-30 16:38:58.8220,00:23,60,0,2018-10-30 16:39:06.2460,1540931946.246368,0.22347463550014615,0.1461148658394154,-0.2900770985697198,0.0651702880859375,-0.162933349609375,-0.7244415283203125,39.102996826171875,20.853485107421875,-73.984619140625,,,,,,,,,,
0,2018-10-30 16:38:58.8220,00:23,60,0,2018-10-30 16:39:06.2630,1540931946.2628732,0.022540995466430673,0.10656106469734056,-0.1947708189551631,0.0651702880859375,-0.162933349609375,-0.7244415283203125,38.96138000488281,20.648757934570312,-73.84384155273438,,,,,,,,,,
0,2018-10-30 16:38:58.8220,00:23,60,0,2018-10-30 16:39:06.2800,1540931946.279615,-0.19222856537857347,0.031828237135864,-0.1948112990037323,0.0300140380859375,-0.1468658447265625,-0.70855712890625,38.96138000488281,20.648757934570312,-73.84384155273438,,,,,,,,,,
0,2018-10-30 16:38:58.8220,00:23,60,0,2018-10-30 16:39:06.2960,1540931946.29628,-0.3111653396615122,-0.06953886448749502,-0.2559468249875913,0.001708984375,-0.1043701171875,-0.743804931640625,38.501739501953125,21.905044555664062,-73.74398803710938,,,,,,,,,,
0,2018-10-30 16:38:58.8220,00:23,60,0,2018-10-30 16:39:06.3150,1540931946.314629,-0.3097589242898414,-0.15691425037579573,-0.3181649259545675,0.001708984375,-0.1043701171875,-0.743804931640625,38.23237609863281,22.424758911132812,-73.58317565917969,,,,,,,,,,
0,2018-10-30 16:38:58.8220,00:23,60,0,2018-10-30 16:39:06.3300,1540931946.330399,-0.24526675006804652,-0.2611535712348052,-0.3718521230016929,0.0170135498046875,-0.1072540283203125,-0.7602386474609375,38.23301696777344,22.424819946289062,-73.50509643554688,,,,,,,,,,
0,2018-10-30 16:38:58.8220,00:23,60,0,2018-10-30 16:39:06.3470,1540931946.346534,-0.16156705911627317,-0.3247716959868361,-0.35160437554992946,-0.0006561279296875,-0.1394500732421875,-0.77447509765625,38.350982666015625,22.090576171875,-73.58917236328125,,,,,,,,,,
0,2018-10-30 16:38:58.8220,00:23,60,0,2018-10-30 16:39:06.3630,1540931946.36311,-0.16156705911627317,-0.3247716959868361,-0.35160437554992946,-0.0006561279296875,-0.1394500732421875,-0.77447509765625,38.097930908203125,21.82958984375,-73.69070434570312,,,,,,,,,,
0,2018-10-30 16:38:58.8220,00:23,60,0,2018-10-30 16:39:06.3800,1540931946.379899,-0.1686430781326137,-0.2858900767038972,-0.32049971928223997,-0.01165771484375,-0.181549072265625,-0.8038177490234375,37.59260559082031,23.017791748046875,-73.36172485351562,,,,,,,,,,
0,2018-10-30 16:38:58.8220,00:23,60,0,2018-10-30 16:39:06.3970,1540931946.3965359,-0.17093286403786384,-0.17481362237832732,-0.2325514874434632,-0.020263671875,-0.1905670166015625,-0.848480224609375,37.59260559082031,23.017791748046875,-73.36172485351562,,,,,,,,,,
