SessionID,SessionDate,SessionDuration,SessionFrequency,RecordID,Timestamp,timeIntervalSince1970,GyroX,GyroY,GyroZ,AccX,AccY,AccZ,MagX,MagY,MagZ
0,41:11.7,0:32,60,0,41:11.8,1540932072,0.107046559,-0.203410646,0.300635467,0.008056641,-0.105102539,-1.079818726,43.97584534,14.77568054,-69.10618591
0,41:11.7,0:32,60,0,41:11.8,1540932072,0.155538994,-0.003457049,0.220555811,-0.042785645,-0.083221436,-1.020736694,44.03196716,14.45365906,-69.19317627
0,41:11.7,0:32,60,0,41:11.8,1540932072,0.183611375,-0.187034602,0.078968852,-0.05947876,-0.102035522,-1.058837891,43.83924866,14.8807373,-68.9535675
0,41:11.7,0:32,60,0,41:11.8,1540932072,0.101198257,-0.239707135,-0.075280373,-0.069503784,-0.112289429,-0.983032227,43.83924866,14.8807373,-68.9535675
0,41:11.7,0:32,60,0,41:11.8,1540932072,0.024557008,-0.228821464,-0.179122084,-0.08605957,-0.134750366,-0.951705933,43.51213074,14.71264648,-68.8215332
0,41:11.7,0:32,60,0,41:11.8,1540932072,-0.045834867,-0.211754596,-0.220847693,-0.08001709,-0.156295776,-0.932754517,43.55392456,14.78034973,-69.51925659
0,41:11.7,0:32,60,0,41:11.9,1540932072,-0.139116345,-0.153525378,-0.222895132,-0.073165894,-0.191268921,-0.908706665,43.50318909,14.40249634,-69.3019104
0,41:11.7,0:32,60,0,41:11.9,1540932072,-0.222027474,0.016736103,-0.135925345,-0.06489563,-0.217102051,-0.883071899,43.49664307,14.79299927,-68.97547913
0,41:11.7,0:32,60,0,41:11.9,1540932072,-0.294093944,0.234205843,0.020706077,-0.056777954,-0.223358154,-0.881729126,43.5783844,15.01014709,-68.8848877
0,41:11.7,0:32,60,0,41:11.9,1540932072,-0.259022243,0.398897057,0.135482994,-0.052642822,-0.185302734,-0.925552368,43.5783844,15.01014709,-68.8848877
0,41:11.7,0:32,60,0,41:11.9,1540932072,0.073867034,0.572239815,0.076719279,-0.089874268,-0.106277466,-0.998947144,43.99638367,15.00508118,-68.94039917
0,41:11.7,0:32,60,0,41:11.9,1540932072,0.073867034,0.572239815,0.076719279,-0.089874268,-0.106277466,-0.998947144,44.18695068,15.27819824,-68.91986084
0,41:11.7,0:32,60,0,41:12.0,1540932072,0.203435946,0.644961157,-0.0270958,-0.107681274,-0.120452881,-1.00302124,44.63088989,14.80267334,-68.67926025
0,41:11.7,0:32,60,0,41:12.0,1540932072,0.081859979,0.788572918,-0.215361049,-0.094116211,-0.181625366,-0.956390381,44.88212585,14.75421143,-68.19902039
0,41:11.7,0:32,60,0,41:12.0,1540932072,0.081859979,0.788572918,-0.215361049,-0.094116211,-0.181625366,-0.956390381,45.42315674,14.72468567,-68.326828
0,41:11.7,0:32,60,0,41:12.0,1540932072,-0.081660775,0.901346871,-0.164852068,-0.047485352,-0.232070923,-0.961029053,46.11166382,14.9004364,-67.89251709
0,41:11.7,0:32,60,0,41:12.0,1540932072,-0.348573166,0.903617482,-0.091966409,-0.00994873,-0.214645386,-1.037597656,46.11166382,14.9004364,-67.89251709
0,41:11.7,0:32,60,0,41:12.0,1540932072,-0.348573166,0.903617482,-0.091966409,-0.00994873,-0.214645386,-1.037597656,46.55151367,15.12490845,-67.62605286
0,41:11.7,0:32,60,0,41:12.1,1540932072,-0.420160001,0.556544741,-0.221951574,0.014129639,-0.153533936,-1.076721191,46.87995911,15.29312134,-67.60192871
0,41:11.7,0:32,60,0,41:12.1,1540932072,-0.384916526,0.3650829,-0.302510865,0.019744873,-0.156433105,-1.08430481,47.16969299,15.70318604,-67.10253906
0,41:11.7,0:32,60,0,41:12.1,1540932072,-0.384916526,0.3650829,-0.302510865,0.019744873,-0.156433105,-1.08430481,47.33969116,15.74691772,-67.24777222
0,41:11.7,0:32,60,0,41:12.1,1540932072,-0.128379012,0.386600176,-0.348593139,0.009185791,-0.143920898,-1.071258545,47.40658569,16.04446411,-67.23306274
0,41:11.7,0:32,60,0,41:12.1,1540932072,0.037686126,0.444426192,-0.331428001,0.009185791,-0.143920898,-1.071258545,47.40658569,16.04446411,-67.23306274
0,41:11.7,0:32,60,0,41:12.1,1540932072,0.037686126,0.444426192,-0.331428001,0.017288208,-0.145446777,-1.069396973,47.55081177,16.24945068,-67.06147766
0,41:11.7,0:32,60,0,41:12.2,1540932072,0.132760445,0.231715255,-0.380972917,0.064102173,-0.171157837,-1.073242188,47.58050537,16.08859253,-66.90974426
0,41:11.7,0:32,60,0,41:12.2,1540932072,0.02612055,-0.11335905,-0.385656352,0.099868774,-0.187484741,-1.05581665,47.67074585,15.91539001,-66.91130066
0,41:11.7,0:32,60,0,41:12.2,1540932072,-0.13809955,-0.520691136,-0.371127211,0.12097168,-0.196075439,-1.037506104,47.45878601,16.11322021,-66.68127441
0,41:11.7,0:32,60,0,41:12.2,1540932072,-0.204846623,-0.762519479,-0.324291528,0.107940674,-0.189987183,-1.041595459,46.99429321,16.35934448,-67.08766174
0,41:11.7,0:32,60,0,41:12.2,1540932072,-0.123837257,-0.86435796,-0.20664186,0.094070435,-0.191207886,-1.059326172,46.58198547,16.67422485,-66.94226074
0,41:11.7,0:32,60,0,41:12.2,1540932072,-0.002688727,-0.734125655,-0.06622749,0.066421509,-0.210464478,-1.029693604,46.58198547,16.67422485,-66.94226074
0,41:11.7,0:32,60,0,41:12.3,1540932072,0.073465696,-0.564579232,0.08816741,0.047103882,-0.224822998,-0.986206055,46.32765198,16.4131012,-67.19996643
0,41:11.7,0:32,60,0,41:12.3,1540932072,0.073465696,-0.564579232,0.08816741,0.047103882,-0.224822998,-0.986206055,46.12159729,16.22033691,-67.37449646
0,41:11.7,0:32,60,0,41:12.3,1540932072,0.017248229,-0.227318642,0.273856051,-0.008377075,-0.240905762,-0.931304932,46.04751587,16.31323242,-67.14086914
0,41:11.7,0:32,60,0,41:12.3,1540932072,-0.02784548,-0.102316519,0.227974046,-0.034179688,-0.212387085,-0.958114624,45.99008179,16.63513184,-67.21006775
0,41:11.7,0:32,60,0,41:12.3,1540932072,-0.038258706,-0.113677297,0.11873464,-0.038955688,-0.194259644,-1.018585205,46.09889221,16.69114685,-67.28012085
0,41:11.7,0:32,60,0,41:12.3,1540932072,-0.056089368,-0.233222071,0.03292253,-0.015991211,-0.193786621,-1.061645508,46.09889221,16.69114685,-67.28012085
0,41:11.7,0:32,60,0,41:12.4,1540932072,-0.077924892,-0.321520243,-0.013228187,-0.000976563,-0.198318481,-1.062576294,46.05976868,16.23254395,-67.37739563
0,41:11.7,0:32,60,0,41:12.4,1540932072,-0.086672045,-0.35494904,-0.017550764,0.005752563,-0.205459595,-1.06098938,45.7691803,16.52281189,-67.46044922
0,41:11.7,0:32,60,0,41:12.4,1540932072,-0.045630069,-0.359733675,-0.001503621,0.009902954,-0.204055786,-1.072036743,45.70928955,16.53521729,-67.22906494
0,41:11.7,0:32,60,0,41:12.4,1540932072,0.013878265,-0.302069313,0.041387654,0.013473511,-0.203674316,-1.06489563,45.58302307,16.55938721,-67.54727173
0,41:11.7,0:32,60,0,41:12.4,1540932072,0.031533159,-0.203034874,0.11753675,0.020202637,-0.210510254,-1.041290283,45.55397034,16.72029114,-67.6209259
0,41:11.7,0:32,60,0,41:12.4,1540932072,0.010875285,-0.138287036,0.204361395,0.020004272,-0.219558716,-1.034820557,45.55397034,16.72029114,-67.6209259
0,41:11.7,0:32,60,0,41:12.5,1540932072,-0.013523266,-0.138318462,0.270760659,0.015289307,-0.212127686,-1.053863525,45.52377319,16.57183838,-67.23779297
0,41:11.7,0:32,60,0,41:12.5,1540932072,-0.067202207,-0.125944084,0.280426602,-0.000106812,-0.192626953,-1.058578491,45.78337097,16.44232178,-67.462677
0,41:11.7,0:32,60,0,41:12.5,1540932072,-0.130379845,-0.123063076,0.25260296,-0.00932312,-0.167663574,-1.06690979,45.79885864,16.36193848,-67.30870056
0,41:11.7,0:32,60,0,41:12.5,1540932073,-0.181352748,-0.174251163,0.192583831,-0.015258789,-0.141967773,-1.096847534,45.96951294,16.40576172,-67.37585449
0,41:11.7,0:32,60,0,41:12.5,1540932073,-0.159862636,-0.257475746,0.126082568,-0.022994995,-0.122940063,-1.122695923,45.72724915,16.76434326,-67.37568665
0,41:11.7,0:32,60,0,41:12.5,1540932073,-0.116018749,-0.33521981,-0.012165054,-0.055496216,-0.113586426,-1.125823975,45.72724915,16.76434326,-67.37568665
0,41:11.7,0:32,60,0,41:12.6,1540932073,-0.071435035,-0.339361558,-0.165314127,-0.075302124,-0.113143921,-1.095108032,45.72854614,16.76446533,-67.21948242
0,41:11.7,0:32,60,0,41:12.6,1540932073,-0.047852744,-0.321888025,-0.263817531,-0.063064575,-0.116104126,-1.060745239,45.6035614,16.78877258,-67.38150024
0,41:11.7,0:32,60,0,41:12.6,1540932073,-0.012827648,-0.313305722,-0.330208806,-0.048339844,-0.107391357,-1.034805298,45.35623169,16.83761597,-67.3931427
0,41:11.7,0:32,60,0,41:12.6,1540932073,0.100645651,-0.260065936,-0.392280433,-0.044525146,-0.094055176,-1.017288208,45.21459961,16.63290405,-67.25233459
0,41:11.7,0:32,60,0,41:12.6,1540932073,0.269500184,-0.143645583,-0.428586775,-0.038284302,-0.083633423,-0.993713379,45.18490601,16.79376221,-67.40409851
0,41:11.7,0:32,60,0,41:12.6,1540932073,0.420855885,0.02579165,-0.427343345,-0.027282715,-0.088088989,-0.959533691,45.15081787,16.64492798,-67.48954773
0,41:11.7,0:32,60,0,41:12.7,1540932073,0.52046317,0.199824966,-0.369326115,-0.005966187,-0.104034424,-0.936721802,45.15081787,16.64492798,-67.48954773
0,41:11.7,0:32,60,0,41:12.7,1540932073,0.542449695,0.320282938,-0.251388026,0.021575928,-0.112808228,-0.924987793,45.48512268,16.42256165,-67.86993408
0,41:11.7,0:32,60,0,41:12.7,1540932073,0.52906518,0.382643518,-0.126017054,0.045257568,-0.121551514,-0.935272217,45.79249573,16.05207825,-67.47671509
0,41:11.7,0:32,60,0,41:12.7,1540932073,0.395389673,0.239177166,0.097648263,0.081054688,-0.151535034,-0.962509155,46.03787231,16.0030365,-67.69935608
0,41:11.7,0:32,60,0,41:12.7,1540932073,0.395389673,0.239177166,0.097648263,0.081054688,-0.151535034,-0.962509155,46.15718079,15.66891479,-67.62724304
0,41:11.7,0:32,60,0,41:12.7,1540932073,0.222117222,0.126692965,0.242117562,0.082473755,-0.166046143,-0.945892334,46.49978638,15.75663757,-67.60536194
0,41:11.7,0:32,60,0,41:12.8,1540932073,0.020006199,0.092245775,0.415603332,0.084762573,-0.168899536,-0.930328369,46.49978638,15.75663757,-67.60536194
0,41:11.7,0:32,60,0,41:12.8,1540932073,-0.087687242,0.122776254,0.612705483,0.093048096,-0.138000488,-0.958236694,46.87585449,15.99311829,-67.57609558
0,41:11.7,0:32,60,0,41:12.8,1540932073,-0.049575809,0.175839738,0.775532749,0.09185791,-0.079849243,-0.998077393,47.19741821,15.54214478,-67.18508911
0,41:11.7,0:32,60,0,41:12.8,1540932073,0.121582625,0.102784969,0.781826598,0.052902222,-0.014923096,-1.045684814,47.36367798,15.27624512,-67.1859436
0,41:11.7,0:32,60,0,41:12.8,1540932073,0.324323486,-0.018495654,0.600652548,-0.012313843,0.022796631,-1.040649414,47.83717346,14.94911194,-67.40655518
0,41:11.7,0:32,60,0,41:12.8,1540932073,0.486348875,0.358696906,0.01424658,-0.120513916,-0.035140991,-0.895584106,48.11421204,14.73939514,-67.24316406
0,41:11.7,0:32,60,0,41:12.9,1540932073,0.486348875,0.358696906,0.01424658,-0.120513916,-0.035140991,-0.895584106,48.11421204,14.73939514,-67.24316406
0,41:11.7,0:32,60,0,41:12.9,1540932073,0.437883871,0.529891559,-0.214694992,-0.102584839,-0.09602356,-0.885055542,48.30232239,14.70301819,-66.92207336
0,41:11.7,0:32,60,0,41:12.9,1540932073,0.123296369,0.37830949,-0.231940026,0.034088135,-0.235488892,-0.917816162,48.68557739,14.54907227,-67.14111328
0,41:11.7,0:32,60,0,41:12.9,1540932073,0.123296369,0.37830949,-0.231940026,0.034088135,-0.235488892,-0.917816162,49.07273865,14.39550781,-66.89161682
0,41:11.7,0:32,60,0,41:12.9,1540932073,-0.12483035,0.039542882,-0.12199941,0.082260132,-0.262786865,-0.937301636,49.26135254,14.66844177,-67.10534668
0,41:11.7,0:32,60,0,41:12.9,1540932073,-0.216068118,-0.30748059,0.053215818,0.063430786,-0.219604492,-1.038711548,49.17112732,14.84162903,-67.10380554
0,41:11.7,0:32,60,0,41:13.0,1540932073,-0.216068118,-0.30748059,0.053215818,0.063430786,-0.219604492,-1.038711548,49.29985046,15.12698364,-67.08618164
0,41:11.7,0:32,60,0,41:13.0,1540932073,0.089045721,-0.367905851,0.095902295,0.059020996,-0.223739624,-1.072616577,49.29985046,15.12698364,-67.08618164
0,41:11.7,0:32,60,0,41:13.0,1540932073,0.086981238,-0.557608941,0.205967547,0.058563232,-0.252670288,-1.060577393,49.19104004,15.07098389,-67.01612854
0,41:11.7,0:32,60,0,41:13.0,1540932073,0.086981238,-0.557608941,0.205967547,0.058563232,-0.252670288,-1.060577393,49.07258606,14.70475769,-67.50456238
0,41:11.7,0:32,60,0,41:13.0,1540932073,0.045884135,-0.879615476,0.225926608,-0.049072266,-0.150283813,-1.093933105,48.89215088,15.05114746,-67.5014801
0,41:11.7,0:32,60,0,41:13.0,1540932073,-0.003505785,-0.679478388,0.06448525,-0.11706543,-0.080215454,-1.059799194,48.733078,14.92660522,-67.7489624
0,41:11.7,0:32,60,0,41:13.1,1540932073,-0.003505785,-0.679478388,0.06448525,-0.11706543,-0.080215454,-1.059799194,48.49076843,15.28521729,-67.74879456
0,41:11.7,0:32,60,0,41:13.1,1540932073,0.068049891,-0.47916127,-0.432164732,-0.189712524,-0.236755371,-1.112731934,48.49076843,15.28521729,-67.74879456
0,41:11.7,0:32,60,0,41:13.1,1540932073,0.102057926,-0.239241881,-0.464002823,-0.120269775,-0.237792969,-1.051391602,48.43074036,15.6068573,-68.13037109
0,41:11.7,0:32,60,0,41:13.1,1540932073,0.086258456,-0.007801464,-0.419808197,-0.070373535,-0.224899292,-1.023010254,48.36711121,15.30963135,-67.75460815
0,41:11.7,0:32,60,0,41:13.1,1540932073,-0.012277972,0.056886452,-0.40150003,-0.053924561,-0.229919434,-1.020355225,48.68069458,15.55827332,-67.80633545
0,41:11.7,0:32,60,0,41:13.1,1540932073,-0.210536733,-0.049474343,-0.375882817,-0.033294678,-0.233505249,-1.008590698,48.70501709,16.09729004,-67.78495789
0,41:11.7,0:32,60,0,41:13.2,1540932073,-0.420095552,-0.22298781,-0.300015217,-0.035369873,-0.240280151,-1.021560669,48.54510498,16.67308044,-67.61610413
0,41:11.7,0:32,60,0,41:13.2,1540932073,-0.533544351,-0.382246973,-0.232720066,-0.045608521,-0.197357178,-1.05897522,48.54510498,16.67308044,-67.61610413
0,41:11.7,0:32,60,0,41:13.2,1540932073,-0.35843352,-0.363569958,-0.184550406,-0.066482544,-0.144683838,-1.111541748,48.51982117,17.14361572,-67.8341217
0,41:11.7,0:32,60,0,41:13.2,1540932073,-0.107051353,-0.107345366,-0.217491578,-0.084762573,-0.075881958,-1.063919067,48.49581909,17.61428833,-67.89596558
0,41:11.7,0:32,60,0,41:13.2,1540932073,0.050348925,0.241765226,-0.262075025,-0.081924438,-0.043319702,-0.982376099,48.88235474,17.4606781,-67.72453308
0,41:11.7,0:32,60,0,41:13.2,1540932073,0.049225337,0.336021687,-0.298367785,-0.049697876,-0.026748657,-0.966339111,48.88607788,17.77029419,-67.868927
0,41:11.7,0:32,60,0,41:13.3,1540932073,0.041668085,0.204202138,-0.314591496,-0.024414063,-0.019592285,-1.003189087,48.82341003,18.4828186,-67.45550537
0,41:11.7,0:32,60,0,41:13.3,1540932073,0.121046264,0.013115536,-0.324484075,-0.023468018,-0.023834229,-1.028244019,49.07270813,18.43417358,-67.20957947
0,41:11.7,0:32,60,0,41:13.3,1540932073,0.257140454,-0.088788992,-0.322500819,-0.046218872,-0.048080444,-1.007171631,49.07270813,18.43417358,-67.20957947
0,41:11.7,0:32,60,0,41:13.3,1540932073,0.348422963,-0.021605161,-0.302093548,-0.079696655,-0.084686279,-0.941009521,49.17698669,18.48974609,-67.8263092
0,41:11.7,0:32,60,0,41:13.3,1540932073,0.366347103,0.107673201,-0.216269453,-0.088531494,-0.135467529,-0.893722534,49.31797791,18.69439697,-68.04521179
0,41:11.7,0:32,60,0,41:13.3,1540932073,0.261280071,0.177373453,-0.083371323,-0.065048218,-0.163284302,-0.873977661,49.61228943,18.71376038,-68.10653687
0,41:11.7,0:32,60,0,41:13.4,1540932073,0.058720838,0.091103279,0.067562533,-0.036117554,-0.172134399,-0.89125061,49.67985535,19.01138306,-68.01373291
0,41:11.7,0:32,60,0,41:13.4,1540932073,-0.148351389,-0.025417209,0.220601884,-0.029815674,-0.164703369,-0.911651611,49.7808075,19.45774841,-67.91355896
0,41:11.7,0:32,60,0,41:13.4,1540932073,-0.265950191,-0.058255317,0.329817587,-0.055175781,-0.152938843,-0.939224243,49.7808075,19.45774841,-67.91355896
0,41:11.7,0:32,60,0,41:13.4,1540932073,-0.298359263,-0.01280368,0.401629193,-0.079421997,-0.142700195,-0.954971313,50.19947815,19.45278931,-67.89096069
0,41:11.7,0:32,60,0,41:13.4,1540932073,-0.295523529,0.069260032,0.429572145,-0.09815979,-0.126831055,-0.96257019,50.31465149,19.81867981,-67.79301453
0,41:11.7,0:32,60,0,41:13.4,1540932073,-0.266068701,0.163227274,0.392200804,-0.114028931,-0.107498169,-0.970214844,50.52006531,20.0113678,-67.6966095
0,41:11.7,0:32,60,0,41:13.5,1540932073,-0.183692069,0.270871712,0.323778603,-0.126098633,-0.110046387,-0.990493774,50.96302795,20.54541016,-67.65261841
0,41:11.7,0:32,60,0,41:13.5,1540932073,-0.044823398,0.320841403,0.207082879,-0.143218994,-0.118362427,-1.020477295,51.00086975,21.00387573,-67.71156311
0,41:11.7,0:32,60,0,41:13.5,1540932073,0.096773681,0.308351444,0.015349129,-0.149200439,-0.118942261,-1.028610229,51.00086975,21.00387573,-67.71156311
0,41:11.7,0:32,60,0,41:13.5,1540932074,0.159099907,0.269697791,-0.205311078,-0.122283936,-0.122116089,-0.993026733,51.34739685,21.09196472,-67.22106934
0,41:11.7,0:32,60,0,41:13.5,1540932074,0.166388446,0.23013094,-0.336006774,-0.068130493,-0.145324707,-0.960845947,51.25653076,21.2651062,-67.29762268
0,41:11.7,0:32,60,0,41:13.5,1540932074,0.183713907,0.166175393,-0.342515007,-0.013122559,-0.190185547,-0.963119507,51.32081604,21.56239319,-67.59529114
0,41:11.7,0:32,60,0,41:13.6,1540932074,0.218020748,0.129895948,-0.278316313,0.005447388,-0.222503662,-0.975997925,51.29421997,22.03282166,-67.96951294
0,41:11.7,0:32,60,0,41:13.6,1540932074,0.214419089,0.094066045,-0.235525173,-0.004547119,-0.223510742,-0.979492188,51.36047363,22.33030701,-68.03291321
0,41:11.7,0:32,60,0,41:13.6,1540932074,0.169959212,0.078230091,-0.225896248,-0.022644043,-0.219863892,-0.987014771,51.36047363,22.33030701,-68.03291321
0,41:11.7,0:32,60,0,41:13.6,1540932074,0.092994389,0.085351383,-0.19909739,-0.02041626,-0.221405029,-0.997634888,51.17936707,22.67662048,-68.10792542
0,41:11.7,0:32,60,0,41:13.6,1540932074,-0.066686353,0.108359764,0.110448481,0.042236328,-0.222366333,-1.059646606,51.07495117,22.93031311,-68.10417175
0,41:11.7,0:32,60,0,41:13.6,1540932074,-0.066686353,0.108359764,0.110448481,0.042236328,-0.222366333,-1.059646606,51.13482666,22.91790771,-68.33552551
0,41:11.7,0:32,60,0,41:13.7,1540932074,-0.094782436,0.075517129,0.276398304,0.043563843,-0.186645508,-1.101013184,51.20237732,23.21551514,-68.2427063
0,41:11.7,0:32,60,0,41:13.7,1540932074,-0.117074692,-0.273555912,0.257768427,-0.029434204,-0.099029541,-1.131515503,50.98439026,24.11314392,-68.22116089
0,41:11.7,0:32,60,0,41:13.7,1540932074,-0.117074692,-0.273555912,0.257768427,-0.029434204,-0.099029541,-1.131515503,50.80134583,24.45927429,-68.53045654
0,41:11.7,0:32,60,0,41:13.7,1540932074,-0.181798295,-0.464771411,0.085139396,-0.093597412,-0.096389771,-1.106903076,50.80134583,24.45927429,-68.53045654
0,41:11.7,0:32,60,0,41:13.7,1540932074,-0.409258884,-0.433388987,0.08630373,-0.03968811,-0.143096924,-1.060958862,50.44633484,24.76150513,-68.92881775
0,41:11.7,0:32,60,0,41:13.7,1540932074,-0.409258884,-0.433388987,0.08630373,-0.03968811,-0.143096924,-1.060958862,49.88131714,25.26171875,-68.86286926
0,41:11.7,0:32,60,0,41:13.8,1540932074,-0.303387844,-0.192555335,0.464589517,0.0050354,-0.142074585,-1.112213135,49.77688599,25.51539612,-68.8591156
0,41:11.7,0:32,60,0,41:13.8,1540932074,-0.268952905,-0.094904941,0.576071305,-0.013687134,-0.083023071,-1.100891113,49.83528137,26.20324707,-68.7522583
0,41:11.7,0:32,60,0,41:13.8,1540932074,-0.268952905,-0.094904941,0.576071305,-0.013687134,-0.083023071,-1.100891113,49.74507141,26.37643433,-68.75073242
0,41:11.7,0:32,60,0,41:13.8,1540932074,-0.251232231,-0.268473003,0.390593853,-0.079879761,0.048248291,-1.083267212,49.74507141,26.37643433,-68.75073242
0,41:11.7,0:32,60,0,41:13.8,1540932074,-0.064707358,-0.3352776,0.149522647,-0.112411499,0.075012207,-1.068847656,49.62449646,26.7104187,-68.97901917
0,41:11.7,0:32,60,0,41:13.8,1540932074,-0.064707358,-0.3352776,0.149522647,-0.112411499,0.075012207,-1.068847656,49.34877014,26.92025757,-68.98620605
0,41:11.7,0:32,60,0,41:13.9,1540932074,0.333239483,-0.023277892,-0.117903734,-0.108154297,-0.011901855,-0.936752319,48.91397095,27.00553894,-69.24085999
0,41:11.7,0:32,60,0,41:13.9,1540932074,0.355491259,0.109345133,-0.067414994,-0.064819336,-0.091766357,-0.897689819,48.60282898,27.06640625,-69.48970032
0,41:11.7,0:32,60,0,41:13.9,1540932074,0.255976386,0.208195548,0.065517758,-0.036132813,-0.154876709,-0.875961304,48.46560669,27.17137146,-69.41519165
0,41:11.7,0:32,60,0,41:13.9,1540932074,0.101636347,0.305447533,0.18882398,-0.030410767,-0.169662476,-0.866317749,48.46560669,27.17137146,-69.41519165
0,41:11.7,0:32,60,0,41:13.9,1540932074,-0.024585504,0.358220733,0.277800991,-0.019119263,-0.150680542,-0.900543213,48.5428009,27.38804626,-69.87127686
0,41:11.7,0:32,60,0,41:13.9,1540932074,-0.095519066,0.348811519,0.366687987,0.001296997,-0.131668091,-0.959197998,48.68457031,27.2835083,-69.39910889
0,41:11.7,0:32,60,0,41:14.0,1540932074,-0.10633656,0.334605951,0.42878305,0.002746582,-0.110351563,-0.995773315,48.80499268,27.2587738,-69.7837677
0,41:11.7,0:32,60,0,41:14.0,1540932074,-0.067849888,0.280147502,0.430848332,-0.011688232,-0.089035034,-1.028640747,48.73350525,27.35192871,-69.23779297
0,41:11.7,0:32,60,0,41:14.0,1540932074,-0.002938266,0.214923492,0.356862787,-0.036483765,-0.068359375,-1.043869019,48.8744812,27.55657959,-69.45666504
0,41:11.7,0:32,60,0,41:14.0,1540932074,0.017628529,0.137257192,0.255030165,-0.04309082,-0.057510376,-1.023239136,48.75456238,27.890625,-69.60687256
0,41:11.7,0:32,60,0,41:14.0,1540932074,0.028067854,-0.003109507,0.169185564,-0.037902832,-0.064147949,-1.025695801,48.75456238,27.890625,-69.60687256
0,41:11.7,0:32,60,0,41:14.0,1540932074,0.080874343,-0.128654649,0.061931811,-0.051712036,-0.069580078,-1.019119263,48.61473083,27.99534607,-69.84474182
0,41:11.7,0:32,60,0,41:14.1,1540932074,0.184248137,-0.155074272,-0.070912523,-0.083679199,-0.078704834,-0.991210938,48.25286865,27.67837524,-69.8762207
0,41:11.7,0:32,60,0,41:14.1,1540932074,0.267453012,-0.083985448,-0.196135689,-0.103027344,-0.098098755,-0.948165894,47.78837585,27.92449951,-70.28263855
0,41:11.7,0:32,60,0,41:14.1,1540932074,0.292286457,0.069656044,-0.268770745,-0.095535278,-0.127502441,-0.912643433,47.52749634,28.0539093,-70.21394348
0,41:11.7,0:32,60,0,41:14.1,1540932074,0.281877492,0.196257129,-0.256832592,-0.060943604,-0.167694092,-0.932449341,47.4772644,27.98538208,-70.53147888
0,41:11.7,0:32,60,0,41:14.1,1540932074,0.28027853,0.266281488,-0.182856369,-0.026382446,-0.190002441,-0.986694336,47.4772644,27.98538208,-70.53147888
0,41:11.7,0:32,60,0,41:14.1,1540932074,0.255518056,0.230526153,-0.107934191,-0.005996704,-0.194732666,-1.038009644,46.85824585,28.10740662,-70.63867188
0,41:11.7,0:32,60,0,41:14.2,1540932074,0.157573116,0.142607216,-0.066255453,-0.00592041,-0.188339233,-1.060165405,46.86347961,27.71676636,-71.12127686
0,41:11.7,0:32,60,0,41:14.2,1540932074,0.054448328,0.062343536,-0.03313292,-0.005813599,-0.17149353,-1.080108643,46.50471497,27.70936584,-71.37524414
0,41:11.7,0:32,60,0,41:14.2,1540932074,0.02246403,0.034378747,0.004320446,-0.013717651,-0.147216797,-1.107009888,46.42933655,27.80212402,-71.29785156
0,41:11.7,0:32,60,0,41:14.2,1540932074,0.039703204,-0.032919334,0.022437931,-0.027801514,-0.124588013,-1.13734436,45.98538208,28.27766418,-71.53845215
0,41:11.7,0:32,60,0,41:14.2,1540932074,0.01793639,-0.109401859,-0.003351855,-0.069442749,-0.126327515,-1.137054443,45.98538208,28.27766418,-71.53845215
0,41:11.7,0:32,60,0,41:14.2,1540932074,-0.117986292,-0.109003183,-0.047223971,-0.098693848,-0.131347656,-1.093536377,45.64343262,28.19000244,-71.48225403
0,41:11.7,0:32,60,0,41:14.3,1540932074,-0.259501612,-0.037078926,-0.112423748,-0.081573486,-0.098098755,-1.062820435,45.38186646,28.31933594,-71.4916687
0,41:11.7,0:32,60,0,41:14.3,1540932074,-0.271139094,0.071150876,-0.101578823,-0.067092896,-0.103042603,-1.089523315,44.79257202,28.2805481,-71.44711304
0,41:11.7,0:32,60,0,41:14.3,1540932074,-0.191325754,0.169503013,-0.004028297,-0.017379761,-0.079620361,-1.109573364,44.57670593,28.47795105,-71.68569946
0,41:11.7,0:32,60,0,41:14.3,1540932074,-0.011113371,0.165502945,0.022694926,-0.019195557,-0.047439575,-1.130187988,44.53038025,28.4098053,-71.53460693
0,41:11.7,0:32,60,0,41:14.3,1540932074,0.184934966,0.138001013,-0.061984275,-0.060317993,-0.028121948,-1.096374512,44.26753235,28.53901672,-71.70024109
0,41:11.7,0:32,60,0,41:14.3,1540932074,0.219515314,0.199766377,-0.173286033,-0.080566406,-0.027908325,-0.98600769,44.26753235,28.53901672,-71.70024109
0,41:11.7,0:32,60,0,41:14.4,1540932074,0.138634313,0.212778848,-0.257848588,-0.080429077,-0.044952393,-0.927093506,44.07373047,28.26556396,-72.11126709
0,41:11.7,0:32,60,0,41:14.4,1540932074,0.037213415,0.17830769,-0.319976674,-0.076919556,-0.066131592,-0.915252686,43.74333191,28.09715271,-72.36965942
0,41:11.7,0:32,60,0,41:14.4,1540932074,-0.006539658,0.117195866,-0.350025654,-0.075088501,-0.09147644,-0.929916382,43.31307983,28.18289185,-72.07763672
0,41:11.7,0:32,60,0,41:14.4,1540932074,-0.008083759,0.089759181,-0.247256398,-0.009353638,-0.108566284,-0.917205811,42.94010925,28.25596619,-72.32939148
0,41:11.7,0:32,60,0,41:14.4,1540932074,-0.008083759,0.089759181,-0.247256398,-0.009353638,-0.108566284,-0.917205811,42.69146729,28.30467224,-72.49720764
0,41:11.7,0:32,60,0,41:14.4,1540932074,-0.054575628,0.102782039,-0.146568136,0.017425537,-0.102966309,-0.893249512,42.69146729,28.30467224,-72.49720764
0,41:11.7,0:32,60,0,41:14.5,1540932074,-0.215227092,-0.025824673,-0.057806575,-0.002990723,-0.091995239,-0.893234253,42.54985046,28.09996033,-72.35643005
0,41:11.7,0:32,60,0,41:14.5,1540932074,-0.215227092,-0.025824673,-0.057806575,-0.002990723,-0.091995239,-0.893234253,42.45263672,27.96322632,-72.60099792
0,41:11.7,0:32,60,0,41:14.5,1540932074,-0.247193813,-0.05269517,-0.023564448,-0.021850586,-0.082763672,-0.898162842,42.0532074,28.19744873,-72.61401367
0,41:11.7,0:32,60,0,41:14.5,1540932075,-0.021629928,0.059589028,0.026850256,-0.048660278,-0.069030762,-0.970825195,41.63961792,28.51220703,-72.62478638
0,41:11.7,0:32,60,0,41:14.5,1540932075,-0.021629928,0.059589028,0.026850256,-0.048660278,-0.069030762,-0.970825195,41.49980164,28.61691284,-72.86265564
0,41:11.7,0:32,60,0,41:14.5,1540932075,0.209040302,0.158772072,0.095452221,-0.052993774,-0.105239868,-1.001022339,41.49980164,28.61691284,-72.86265564
0,41:11.7,0:32,60,0,41:14.6,1540932075,0.206698319,0.128612305,0.069714899,-0.064559937,-0.111984253,-1.003585815,41.41365051,28.09011841,-72.88696289
0,41:11.7,0:32,60,0,41:14.6,1540932075,0.206698319,0.128612305,0.069714899,-0.064559937,-0.111984253,-1.003585815,41.54580688,27.67538452,-72.9732666
0,41:11.7,0:32,60,0,41:14.6,1540932075,0.218459371,-0.103532518,-0.059077701,-0.081451416,-0.129119873,-1.028366089,41.14790344,27.20936584,-73.32449341
0,41:11.7,0:32,60,0,41:14.6,1540932075,0.266113442,-0.090860665,-0.096553704,-0.068908691,-0.14503479,-1.00453186,40.88441467,27.33850098,-73.56820679
0,41:11.7,0:32,60,0,41:14.6,1540932075,0.266113442,-0.090860665,-0.096553704,-0.068908691,-0.14503479,-1.00453186,40.50770569,27.10195923,-73.67555237
0,41:11.7,0:32,60,0,41:14.6,1540932075,0.321721844,0.110678045,-0.04920057,-0.030303955,-0.205490112,-0.967071533,40.42401123,26.88464355,-74.0004425
0,41:11.7,0:32,60,0,41:14.7,1540932075,0.212115455,0.130946299,0.014031663,-0.006546021,-0.219268799,-0.964614868,40.42401123,26.88464355,-74.0004425
0,41:11.7,0:32,60,0,41:14.7,1540932075,0.021298631,0.033128392,0.049295378,0.004638672,-0.222503662,-0.984985352,40.33528137,26.35758972,-74.33714294
0,41:11.7,0:32,60,0,41:14.7,1540932075,-0.209727132,-0.080506294,0.079194954,0.018081665,-0.211517334,-0.998016357,40.08728027,26.40637207,-74.42686462
0,41:11.7,0:32,60,0,41:14.7,1540932075,-0.209727132,-0.080506294,0.079194954,0.018081665,-0.211517334,-0.998016357,39.83422852,26.14538574,-74.52841187
0,41:11.7,0:32,60,0,41:14.7,1540932075,-0.518160068,-0.121075825,0.145612594,0.006988525,-0.167297363,-1.049316406,39.64282227,26.5725708,-74.13261414
0,41:11.7,0:32,60,0,41:14.7,1540932075,-0.53876175,0.039204394,0.144744403,-0.012191772,-0.140853882,-1.074768066,39.43087769,26.77037048,-73.90260315
0,41:11.7,0:32,60,0,41:14.8,1540932075,-0.53876175,0.039204394,0.144744403,-0.012191772,-0.140853882,-1.074768066,39.43087769,26.77037048,-73.90260315
0,41:11.7,0:32,60,0,41:14.8,1540932075,-0.512683544,0.339632934,0.147250438,0.037307739,-0.083328247,-1.149490356,39.21762085,26.96806335,-73.82878113
0,41:11.7,0:32,60,0,41:14.8,1540932075,-0.42764588,0.290328501,0.101122091,0.05821228,-0.055877686,-1.205474854,39.45011902,26.99964905,-73.89300537
0,41:11.7,0:32,60,0,41:14.8,1540932075,-0.285937215,0.204928382,0.019597137,0.072402954,-0.024856567,-1.212982178,39.49713135,27.06787109,-73.96598816
0,41:11.7,0:32,60,0,41:14.8,1540932075,-0.091384242,0.135193775,-0.049070874,0.08605957,-0.017852783,-1.197174072,39.40818787,27.24118042,-73.8082428
0,41:11.7,0:32,60,0,41:14.8,1540932075,0.10261932,0.129086614,-0.069471487,0.087738037,-0.039596558,-1.154220581,39.32646179,27.02406311,-73.89881897
0,41:11.7,0:32,60,0,41:14.9,1540932075,0.233727273,0.176324966,-0.025539449,0.091461182,-0.06086731,-1.085601807,39.19267273,26.42897034,-73.92826843
0,41:11.7,0:32,60,0,41:14.9,1540932075,0.276093639,0.212406005,0.046242597,0.092178345,-0.068466187,-1.019989014,39.19267273,26.42897034,-73.92826843
0,41:11.7,0:32,60,0,41:14.9,1540932075,0.25248658,0.17787972,0.081544128,0.079696655,-0.069519043,-0.974319458,39.37052917,26.08232117,-74.2437439
0,41:11.7,0:32,60,0,41:14.9,1540932075,0.17795056,0.099684783,0.069686137,0.049423218,-0.07824707,-0.942596436,39.06982422,25.75305176,-74.35041809
0,41:11.7,0:32,60,0,41:14.9,1540932075,0.060465208,0.055354869,0.077155772,0.041671753,-0.094207764,-0.909591675,39.04928589,25.5236969,-74.51618958
0,41:11.7,0:32,60,0,41:14.9,1540932075,-0.057977816,0.028215659,0.115701833,0.042922974,-0.106201172,-0.904022217,38.80503845,25.88208008,-74.75030518
0,41:11.7,0:32,60,0,41:15.0,1540932075,-0.13938852,0.014773354,0.156397597,0.045379639,-0.10168457,-0.919296265,38.67892456,25.59701538,-74.45555115
0,41:11.7,0:32,60,0,41:15.0,1540932075,-0.148193197,-0.012379438,0.205625864,0.045852661,-0.092498779,-0.947814941,38.67892456,25.59701538,-74.45555115
0,41:11.7,0:32,60,0,41:15.0,1540932075,-0.091448691,-0.020705279,0.258074158,0.046218872,-0.08682251,-0.953872681,38.82528687,25.10177612,-74.5440979
0,41:11.7,0:32,60,0,41:15.0,1540932075,-0.021025657,-0.037716753,0.285878625,0.036331177,-0.092483521,-0.94720459,38.66685486,24.97729492,-74.71347046
0,41:11.7,0:32,60,0,41:15.0,1540932075,0.010495252,-0.056286709,0.255864001,0.003143311,-0.101242065,-0.934783936,38.41642761,24.71656799,-74.50262451
0,41:11.7,0:32,60,0,41:15.0,1540932075,0.003997405,-0.087359673,0.198000701,-0.011367798,-0.096069336,-0.925323486,38.24446106,24.67266846,-74.5916748
0,41:11.7,0:32,60,0,41:15.1,1540932075,-0.009000686,-0.139942457,0.125120368,-0.015670776,-0.089828491,-0.937698364,38.05699158,24.70909119,-74.83468628
0,41:11.7,0:32,60,0,41:15.1,1540932075,0.033399768,-0.251322512,0.016815732,-0.029190063,-0.098434448,-0.966171265,38.05699158,24.70909119,-74.83468628
0,41:11.7,0:32,60,0,41:15.1,1540932075,0.058076885,-0.344102251,-0.102170311,-0.047592163,-0.124343872,-0.960342407,37.69706726,24.39230347,-74.63188171
0,41:11.7,0:32,60,0,41:15.1,1540932075,0.027542412,-0.355428409,-0.171782945,-0.044342041,-0.148162842,-0.942489624,37.37828064,24.1431427,-75.20489502
0,41:11.7,0:32,60,0,41:15.1,1540932075,0.078310252,-0.228307208,-0.16628405,-0.033691406,-0.178237915,-0.948730469,37.08149719,23.81427002,-74.84300232
0,41:11.7,0:32,60,0,41:15.1,1540932075,0.187802125,-0.012203137,-0.103933856,-0.028045654,-0.188140869,-0.975036621,36.64735413,23.89962769,-75.01957703
0,41:11.7,0:32,60,0,41:15.2,1540932075,0.299350758,0.19528401,-0.05551599,-0.009460449,-0.166931152,-0.98991394,36.63331604,23.27972412,-75.51174927
0,41:11.7,0:32,60,0,41:15.2,1540932075,0.361560337,0.198944791,-0.038392663,-0.002410889,-0.160903931,-1.041427612,36.63331604,23.27972412,-75.51174927
0,41:11.7,0:32,60,0,41:15.2,1540932075,0.107421798,-0.009752496,0.017095896,0.018295288,-0.139938354,-1.026489258,36.73205566,22.71621704,-75.60542297
0,41:11.7,0:32,60,0,41:15.2,1540932075,0.107421798,-0.009752496,0.017095896,0.018295288,-0.139938354,-1.026489258,36.77397156,22.47467041,-75.69018555
0,41:11.7,0:32,60,0,41:15.2,1540932075,-0.064609886,-0.015852466,0.062105982,0.018432617,-0.113311768,-1.023910522,36.50738525,22.29425049,-75.71141052
0,41:11.7,0:32,60,0,41:15.2,1540932075,-0.21915126,0.001313205,-0.072764219,-0.049285889,-0.048171997,-1.126800537,36.47329712,22.14541626,-75.79685974
0,41:11.7,0:32,60,0,41:15.3,1540932075,-0.21915126,0.001313205,-0.072764219,-0.049285889,-0.048171997,-1.126800537,36.10423279,22.21887207,-75.58003235
0,41:11.7,0:32,60,0,41:15.3,1540932075,-0.19262511,-0.1440376,-0.303185177,-0.088394165,-0.039352417,-1.190994263,35.5960083,22.39710999,-75.52297974
0,41:11.7,0:32,60,0,41:15.3,1540932075,-0.12438933,-0.689598666,-0.630487409,-0.059173584,-0.066390991,-1.221939087,35.5960083,22.39710999,-75.52297974
0,41:11.7,0:32,60,0,41:15.3,1540932075,-0.12438933,-0.689598666,-0.630487409,-0.059173584,-0.066390991,-1.221939087,34.90440369,21.9118042,-75.73478699
0,41:11.7,0:32,60,0,41:15.3,1540932075,-0.061002901,-0.569036831,-0.637849984,-0.07359314,-0.099746704,-1.064956665,34.08062744,21.84120178,-75.86027527
0,41:11.7,0:32,60,0,41:15.3,1540932075,-0.015457786,-0.317643213,-0.591503791,-0.099884033,-0.109436035,-1.012954712,33.42507935,21.50489807,-75.75234985
0,41:11.7,0:32,60,0,41:15.4,1540932075,-0.015457786,-0.317643213,-0.591503791,-0.099884033,-0.109436035,-1.012954712,33.00901794,21.51016235,-75.46255493
0,41:11.7,0:32,60,0,41:15.4,1540932075,0.113956663,0.360594408,-0.377596828,-0.106506348,-0.098815918,-0.934616089,32.92858887,21.29316711,-75.3969574
0,41:11.7,0:32,60,0,41:15.4,1540932075,0.113956663,0.360594408,-0.377596828,-0.106506348,-0.098815918,-0.934616089,32.92858887,21.29316711,-75.3969574
0,41:11.7,0:32,60,0,41:15.4,1540932075,0.119526931,0.63379399,-0.278741886,-0.095870972,-0.090377808,-0.932357788,33.3518219,20.8974762,-75.93505859
0,41:11.7,0:32,60,0,41:15.4,1540932075,0.064463146,0.765473457,-0.077244188,0.000808716,-0.05355835,-1.015335083,33.73832703,20.74385071,-75.76364136
0,41:11.7,0:32,60,0,41:15.4,1540932075,0.064463146,0.765473457,-0.077244188,0.000808716,-0.05355835,-1.015335083,34.18605042,20.57794189,-75.66741943
0,41:11.7,0:32,60,0,41:15.5,1540932075,-0.005131645,0.10211039,-0.097321227,0.054229736,-0.031707764,-1.081298828,34.04879761,20.68292236,-75.59289551
0,41:11.7,0:32,60,0,41:15.5,1540932075,0.002458897,-0.228532245,-0.198391919,0.044555664,-0.032958984,-1.032455444,33.97999573,20.38519287,-75.84190369
0,41:11.7,0:32,60,0,41:15.5,1540932075,0.001624795,-0.335256561,-0.285263169,0.030166626,-0.04776001,-0.943496704,33.50991821,20.01226807,-75.72525024
0,41:11.7,0:32,60,0,41:15.5,1540932076,-0.005456817,-0.307015336,-0.298076968,0.026092529,-0.096282959,-0.883331299,33.50991821,20.01226807,-75.72525024
0,41:11.7,0:32,60,0,41:15.5,1540932076,0.004202468,-0.271723391,-0.220933714,0.049224854,-0.147155762,-0.870330811,33.08621216,19.70748901,-75.75964355
0,41:11.7,0:32,60,0,41:15.5,1540932076,0.004202468,-0.271723391,-0.220933714,0.049224854,-0.147155762,-0.870330811,32.81896973,19.52700806,-75.85897827
0,41:11.7,0:32,60,0,41:15.6,1540932076,0.06182635,-0.248479055,0.048938248,0.029983521,-0.211227417,-0.882873535,32.67671204,19.32221985,-75.79627991
0,41:11.7,0:32,60,0,41:15.6,1540932076,0.13726891,-0.175872229,0.103623598,-0.019210815,-0.19644165,-0.904663086,32.34698486,19.15388489,-75.97657776
0,41:11.7,0:32,60,0,41:15.6,1540932076,0.201198358,-0.121075293,0.041565819,-0.055999756,-0.175247192,-0.935302734,32.21888733,18.86860657,-75.91612244
0,41:11.7,0:32,60,0,41:15.6,1540932076,0.192992094,-0.113146796,-0.028028439,-0.051223755,-0.164672852,-0.953598022,32.21888733,18.86860657,-75.91612244
0,41:11.7,0:32,60,0,41:15.6,1540932076,0.177127377,-0.127965689,-0.070877369,-0.04486084,-0.179275513,-0.978149414,32.42709351,18.3611908,-76.0017395
0,41:11.7,0:32,60,0,41:15.6,1540932076,0.180665919,-0.093311039,-0.090110985,-0.033096313,-0.183135986,-0.98739624,32.20372009,17.93934631,-75.95153809
0,41:11.7,0:32,60,0,41:15.7,1540932076,0.230207639,0.012254003,-0.100701311,-0.028076172,-0.188247681,-0.993484497,32.07371521,17.65386963,-76.12535095
0,41:11.7,0:32,60,0,41:15.7,1540932076,0.297737149,0.132643265,-0.074868382,-0.009735107,-0.195892334,-1.011459351,32.10144043,17.49282837,-76.207901
0,41:11.7,0:32,60,0,41:15.7,1540932076,0.320523155,0.210116219,-0.028731247,0.012969971,-0.198608398,-1.027664185,32.18922424,17.01013184,-75.90887451
0,41:11.7,0:32,60,0,41:15.7,1540932076,0.263305672,0.197403354,0.041943722,0.034469604,-0.204071045,-1.045089722,32.18922424,17.01013184,-75.90887451
0,41:11.7,0:32,60,0,41:15.7,1540932076,0.187175217,0.075736573,0.085717302,0.030822754,-0.203369141,-1.074798584,32.39935303,16.50288391,-75.76020813
0,41:11.7,0:32,60,0,41:15.7,1540932076,0.116683207,-0.019815783,0.077049511,0.003387451,-0.195922852,-1.081817627,32.30082703,16.36601257,-76.16094971
0,41:11.7,0:32,60,0,41:15.8,1540932076,0.018641329,0.088273137,0.060072658,-0.020568848,-0.185653687,-1.052581787,32.51472473,16.16838074,-76.15667725
0,41:11.7,0:32,60,0,41:15.8,1540932076,-0.129730034,0.356559187,0.13432878,0.010925293,-0.191650391,-1.072296143,32.65388489,16.06359863,-75.99690247
0,41:11.7,0:32,60,0,41:15.8,1540932076,-0.205332117,0.404614331,0.199728826,0.072601318,-0.157623291,-1.101760864,32.65388489,16.06359863,-75.99690247
0,41:11.7,0:32,60,0,41:15.8,1540932076,-0.23063268,0.312620491,0.274581762,0.106689453,-0.147842407,-1.150604248,33.0397644,15.90991211,-75.90356445
0,41:11.7,0:32,60,0,41:15.8,1540932076,-0.277177812,0.101729292,0.38034814,0.136016846,-0.131195068,-1.161468506,33.34893799,15.84886169,-75.88902283
0,41:11.7,0:32,60,0,41:15.9,1540932076,-0.381923666,-0.129179558,0.492529007,0.13218689,-0.099380493,-1.120681763,33.50605774,15.97320557,-75.87585449
0,41:11.7,0:32,60,0,41:15.9,1540932076,-0.455178705,-0.276901109,0.553403543,0.077972412,-0.062576294,-1.074920654,33.34107971,16.23922729,-75.71878052
0,41:11.7,0:32,60,0,41:15.9,1540932076,-0.426772896,-0.288977213,0.529822849,0.021316528,-0.013412476,-1.044525146,33.07106018,16.75888062,-75.63607788
0,41:11.7,0:32,60,0,41:15.9,1540932076,-0.303026719,-0.151517621,0.479632117,-0.020736694,0.010269165,-1.015686035,33.07106018,16.75888062,-75.63607788
0,41:11.7,0:32,60,0,41:15.9,1540932076,-0.119479793,0.056882724,0.397388642,-0.05166626,0.01991272,-0.999191284,33.13549805,16.74691772,-75.32080078
0,41:11.7,0:32,60,0,41:15.9,1540932076,0.034040525,0.201949103,0.266885493,-0.072265625,0.007537842,-0.986099243,33.19424438,16.42514038,-75.09541321
0,41:11.7,0:32,60,0,41:16.0,1540932076,0.043877177,0.215232418,0.167309367,-0.067077637,-0.040100098,-0.966247559,33.4241333,16.45646667,-75.47203064
0,41:11.7,0:32,60,0,41:16.0,1540932076,-0.078497206,0.215218303,0.194110355,-0.027526855,-0.081039429,-0.924636841,33.51760864,16.28361511,-75.08308411
0,41:11.7,0:32,60,0,41:16.0,1540932076,-0.209415808,0.209775335,0.246607385,0.000305176,-0.089874268,-0.916702271,33.59739685,16.50053406,-75.22677612
0,41:11.7,0:32,60,0,41:16.0,1540932076,-0.22456733,0.167763702,0.24013404,0.001586914,-0.07673645,-0.944503784,33.78355408,16.46395874,-75.13995361
0,41:11.7,0:32,60,0,41:16.0,1540932076,-0.148554055,0.056898437,0.192861066,0.001434326,-0.075042725,-0.968536377,33.78355408,16.46395874,-75.13995361
0,41:11.7,0:32,60,0,41:16.0,1540932076,-0.040845701,-0.050966245,0.130592099,-0.000854492,-0.087860107,-0.957977295,33.93690491,16.27867126,-74.98239136
0,41:11.7,0:32,60,0,41:16.1,1540932076,0.043080892,-0.105676629,0.086599074,-0.009567261,-0.109771729,-0.920654297,33.61547852,16.42041016,-74.76042175
0,41:11.7,0:32,60,0,41:16.1,1540932076,0.074969316,-0.077882282,0.091979991,-0.010131836,-0.142089844,-0.878738403,33.84098816,16.14205933,-75.070755
0,41:11.7,0:32,60,0,41:16.1,1540932076,0.096519616,-0.025171666,0.112386197,-0.00453186,-0.162811279,-0.871017456,33.68386841,16.0177002,-75.0839386
0,41:11.7,0:32,60,0,41:16.1,1540932076,0.098016579,0.025568211,0.132794799,0.003433228,-0.170593262,-0.883285522,33.69805908,15.93721008,-75.08616638
0,41:11.7,0:32,60,0,41:16.1,1540932076,0.092185055,0.078597341,0.139286787,0.00958252,-0.165115356,-0.910293579,33.69805908,15.93721008,-75.08616638
0,41:11.7,0:32,60,0,41:16.1,1540932076,0.126099346,0.182521876,0.035533227,-0.011154175,-0.142410278,-0.98928833,33.89660645,15.51071167,-74.62287903
0,41:11.7,0:32,60,0,41:16.2,1540932076,0.149730373,0.217090772,-0.010476876,-0.002227783,-0.13822937,-1.033920288,34.09111023,15.39308167,-75.24116516
0,41:11.7,0:32,60,0,41:16.2,1540932076,0.174964357,0.202903314,-0.039413719,0.01739502,-0.135284424,-1.084014893,34.13743591,15.46122742,-75.39221191
0,41:11.7,0:32,60,0,41:16.2,1540932076,0.189415202,0.166067002,-0.058738148,0.037353516,-0.126693726,-1.115768433,34.36552429,15.18312073,-75.39015198
0,41:11.7,0:32,60,0,41:16.2,1540932076,0.195208376,0.103402289,-0.089871833,0.044998169,-0.115249634,-1.135665894,34.5536499,15.14674377,-75.06904602
0,41:11.7,0:32,60,0,41:16.2,1540932076,0.198878479,0.027975708,-0.17028039,0.036712646,-0.100814819,-1.138748169,34.56278992,14.75650024,-75.08308411
0,41:11.7,0:32,60,0,41:16.2,1540932076,0.180476035,-0.044990112,-0.272097832,0.030044556,-0.103225708,-1.129745483,34.56278992,14.75650024,-75.08308411
0,41:11.7,0:32,60,0,41:16.3,1540932076,0.165230237,-0.110556339,-0.338568468,0.025421143,-0.131011963,-1.124221802,34.63114929,14.35377502,-75.40658569
0,41:11.7,0:32,60,0,41:16.3,1540932076,0.118186295,-0.182495511,-0.357921394,0.014831543,-0.170822144,-1.115264893,34.58483887,14.28562927,-75.25553894
0,41:11.7,0:32,60,0,41:16.3,1540932076,-0.009590842,-0.19438546,-0.323637722,-0.007446289,-0.201873779,-1.086181641,34.13273621,14.1418457,-75.28547668
0,41:11.7,0:32,60,0,41:16.3,1540932076,-0.193462408,-0.216750154,-0.240093826,-0.000259399,-0.184494019,-1.062530518,34.20091248,14.43951416,-75.11456299
0,41:11.7,0:32,60,0,41:16.3,1540932076,-0.300037587,-0.225448837,-0.243291483,-0.039428711,-0.14276123,-1.073547363,33.80151367,14.67376709,-75.12757874
0,41:11.7,0:32,60,0,41:16.3,1540932076,-0.265408504,-0.14658811,-0.302099939,-0.074584961,-0.100616455,-1.087997437,33.80151367,14.67376709,-75.12757874
0,41:11.7,0:32,60,0,41:16.4,1540932076,-0.18066512,-0.007676828,-0.35120863,-0.064102173,-0.062973022,-1.072875977,33.81700134,14.59339905,-74.97358704
0,41:11.7,0:32,60,0,41:16.4,1540932076,-0.097412307,0.095388571,-0.35859757,-0.036682129,-0.054138184,-1.059921265,33.92401123,14.33995056,-74.66497803
0,41:11.7,0:32,60,0,41:16.4,1540932076,-0.038607047,0.080578999,-0.31258294,-0.004684448,-0.058929443,-1.047622681,33.69398499,14.6178894,-74.90132141
0,41:11.7,0:32,60,0,41:16.4,1540932076,-0.007972972,-0.009728527,-0.252733455,0.007156372,-0.06086731,-1.017745972,33.64633179,14.54960632,-74.90644836
0,41:11.7,0:32,60,0,41:16.4,1540932076,0.010093647,-0.095511876,-0.212150875,-0.005371094,-0.066619873,-0.981430054,33.54193115,14.80329895,-74.9026947
0,41:11.7,0:32,60,0,41:16.4,1540932076,0.007067231,-0.069725552,-0.161787835,-0.024276733,-0.074661255,-0.928833008,33.54193115,14.80329895,-74.9026947
0,41:11.7,0:32,60,0,41:16.5,1540932076,0.007067231,-0.069725552,-0.161787835,-0.024276733,-0.074661255,-0.928833008,33.55805969,14.72299194,-74.67062378
0,41:11.7,0:32,60,0,41:16.5,1540932076,-0.082704201,0.152557585,-0.084389982,-0.024429321,-0.078384399,-0.874847412,33.89057922,14.19119263,-74.6723175
0,41:11.7,0:32,60,0,41:16.5,1540932076,-0.160633089,0.171542994,-0.04686764,0.018997192,-0.06427002,-0.893585205,33.99940491,14.24719238,-74.74240112
0,41:11.7,0:32,60,0,41:16.5,1540932077,-0.160633089,0.171542994,-0.04686764,0.018997192,-0.06427002,-0.893585205,33.91488647,14.73020935,-74.65093994
0,41:11.7,0:32,60,0,41:16.5,1540932077,-0.17669195,-0.163935941,0.036249617,0.056396484,-0.057281494,-0.968811035,33.81306458,14.98416138,-74.33479309
0,41:11.7,0:32,60,0,41:16.5,1540932077,-0.130693299,-0.315789919,0.03283864,0.022781372,-0.064590454,-0.962417603,33.81306458,14.98416138,-74.33479309
0,41:11.7,0:32,60,0,41:16.6,1540932077,-0.130693299,-0.315789919,0.03283864,0.022781372,-0.064590454,-0.962417603,33.66101074,15.16957092,-74.33616638
0,41:11.7,0:32,60,0,41:16.6,1540932077,-0.013875336,-0.130681581,-0.015149924,-0.036804199,-0.074188232,-0.879058838,33.44270325,15.05749512,-74.2741394
0,41:11.7,0:32,60,0,41:16.6,1540932077,0.083168923,0.086970585,-0.039534626,-0.046295166,-0.091705322,-0.897796631,33.6985321,14.61833191,-74.35464478
0,41:11.7,0:32,60,0,41:16.6,1540932077,0.171609573,0.177079706,-0.065145448,-0.037002563,-0.113845825,-0.946456909,33.73329163,14.76722717,-74.19108582
0,41:11.7,0:32,60,0,41:16.6,1540932077,0.190460759,0.160726033,-0.0780205,-0.020599365,-0.126998901,-0.975234985,33.71908569,14.84771729,-74.18885803
0,41:11.7,0:32,60,0,41:16.6,1540932077,0.198006293,0.066579294,-0.08456362,-0.006790161,-0.129379272,-1.005966187,33.78091431,14.83551025,-74.1859436
0,41:11.7,0:32,60,0,41:16.7,1540932077,0.256693309,0.021794245,-0.115687984,-0.016387939,-0.122817993,-1.024337769,33.78091431,14.83551025,-74.1859436
0,41:11.7,0:32,60,0,41:16.7,1540932077,0.350392105,0.093756852,-0.214141055,-0.035507202,-0.116836548,-1.017105103,34.11343384,14.30371094,-74.18766785
0,41:11.7,0:32,60,0,41:16.7,1540932077,0.364271435,0.207436813,-0.275043288,-0.011703491,-0.137435913,-1.005279541,34.25979614,13.80848694,-74.27619934
0,41:11.7,0:32,60,0,41:16.7,1540932077,0.331143575,0.282197338,-0.227825175,0.037567139,-0.176681519,-1.026901245,34.15667725,14.06233215,-74.11624146
0,41:11.7,0:32,60,0,41:16.7,1540932077,0.300525212,0.308991668,-0.092856171,0.081817627,-0.209136963,-1.067657471,34.07998657,14.15493774,-74.19500732
0,41:11.7,0:32,60,0,41:16.7,1540932077,0.233961365,0.223515116,0.074108849,0.120407104,-0.214370728,-1.103500366,34.47744751,13.92050171,-74.41630554
0,41:11.7,0:32,60,0,41:16.8,1540932077,0.120246517,0.047837297,0.190643452,0.121322632,-0.203277588,-1.116378784,34.47744751,13.92050171,-74.41630554
0,41:11.7,0:32,60,0,41:16.8,1540932077,0.014240455,-0.111381919,0.230094455,0.102340698,-0.170547485,-1.106689453,34.7835083,13.54988098,-74.17927551
0,41:11.7,0:32,60,0,41:16.8,1540932077,-0.036582246,-0.144231212,0.181877391,0.069641113,-0.134780884,-1.090530396,34.70176697,13.33276367,-74.26986694
0,41:11.7,0:32,60,0,41:16.8,1540932077,0.007635815,-0.063157931,0.087730918,0.032516479,-0.138717651,-1.096694946,34.84469604,13.53761292,-74.25445557
0,41:11.7,0:32,60,0,41:16.8,1540932077,0.031516115,0.006934605,0.083528183,0.078582764,-0.145965576,-1.091262817,34.64694214,13.65493774,-74.02668762
0,41:11.7,0:32,60,0,41:16.8,1540932077,-0.031797344,0.017015469,0.148878428,0.097381592,-0.175186157,-1.084487915,34.78923035,13.85971069,-74.08937073
0,41:11.7,0:32,60,0,41:16.9,1540932077,-0.148863514,-0.0603451,0.300873554,0.111480713,-0.194747925,-1.082275391,34.78923035,13.85971069,-74.08937073
0,41:11.7,0:32,60,0,41:16.9,1540932077,-0.317080487,-0.076768814,0.484011152,0.109375,-0.17276001,-1.041687012,34.59082031,13.97697449,-73.93969727
0,41:11.7,0:32,60,0,41:16.9,1540932077,-0.454930498,-0.019686087,0.605122131,0.095977783,-0.105133057,-1.006973267,34.92184448,14.14541626,-73.60317993
0,41:11.7,0:32,60,0,41:16.9,1540932077,-0.472566484,0.120015088,0.604227842,0.064453125,-0.028930664,-0.999160767,35.15499878,14.17706299,-73.58932495
0,41:11.7,0:32,60,0,41:16.9,1540932077,-0.315149961,0.238956922,0.505817382,0.046066284,0.019180298,-1.031448364,35.3951416,14.5186615,-73.3293457
0,41:11.7,0:32,60,0,41:16.9,1540932077,-0.109963786,0.267902288,0.348387011,0.035339355,0.024841309,-1.04208374,35.52258301,14.80387878,-73.46792603
0,41:11.7,0:32,60,0,41:17.0,1540932077,0.017385116,0.203554723,0.175868234,0.021469116,-0.014266968,-1.012451172,35.72666931,14.9964447,-73.52770996
0,41:11.7,0:32,60,0,41:17.0,1540932077,-0.010799651,0.10039345,0.075086762,0.018112183,-0.074325562,-0.948181152,35.72666931,14.9964447,-73.52770996
0,41:11.7,0:32,60,0,41:17.0,1540932077,-0.119429193,0.097126817,0.070825438,0.020095825,-0.126022339,-0.885391235,36.06491089,14.77445984,-73.43952942
0,41:11.7,0:32,60,0,41:17.0,1540932077,-0.224268524,0.176799275,0.143767556,0.028610229,-0.152801514,-0.860595703,36.1131897,14.84281921,-73.35627747
0,41:11.7,0:32,60,0,41:17.0,1540932077,-0.271782513,0.310835108,0.278872914,0.057556152,-0.154785156,-0.881607056,36.20063782,15.36976624,-73.17579651
0,41:11.7,0:32,60,0,41:17.0,1540932077,-0.196580437,0.385140498,0.450284348,0.088470459,-0.145996094,-0.956497192,36.54519653,15.45767212,-72.91958618
0,41:11.7,0:32,60,0,41:17.1,1540932077,-0.080263947,0.335970555,0.565848761,0.093948364,-0.12272644,-1.012939453,36.96646118,15.45295715,-72.58462524
0,41:11.7,0:32,60,0,41:17.1,1540932077,0.022446453,0.164039005,0.578462291,0.070465088,-0.09828186,-1.032073975,36.96646118,15.45295715,-72.58462524
0,41:11.7,0:32,60,0,41:17.1,1540932077,0.062178686,-0.107530722,0.504228273,0.041259766,-0.09197998,-1.028701782,37.05409241,15.27949524,-72.89854431
0,41:11.7,0:32,60,0,41:17.1,1540932077,0.031884962,-0.324176479,0.387244395,0.004486084,-0.088729858,-0.985229492,37.10238647,15.3478241,-72.81530762
0,41:11.7,0:32,60,0,41:17.1,1540932077,0.136259039,-0.264837256,0.174190975,-0.049758911,-0.101745605,-0.951385498,36.88471985,15.23582458,-72.67521667
0,41:11.7,0:32,60,0,41:17.1,1540932077,0.136259039,-0.264837256,0.174190975,-0.049758911,-0.101745605,-0.951385498,36.63609314,15.28453064,-72.84303284
0,41:11.7,0:32,60,0,41:17.2,1540932077,0.314435968,-0.062939285,0.108003699,-0.051589966,-0.110092163,-0.970046997,36.85829163,15.39698792,-72.4364624
0,41:11.7,0:32,60,0,41:17.2,1540932077,0.474535625,0.129290612,0.068580393,-0.014221191,-0.149505615,-1.020935059,36.85829163,15.39698792,-72.4364624
0,41:11.7,0:32,60,0,41:17.2,1540932077,0.474535625,0.129290612,0.068580393,-0.014221191,-0.149505615,-1.020935059,36.95635986,14.8334198,-72.60824585
0,41:11.7,0:32,60,0,41:17.2,1540932077,0.38975256,0.08574127,0.072830532,-0.003204346,-0.161712646,-1.044036865,37.08656311,14.41850281,-72.92883301
0,41:11.7,0:32,60,0,41:17.2,1540932077,0.249314489,0.036750558,-0.051416053,-0.015258789,-0.102203369,-1.110656738,37.09883118,14.33782959,-73.16534424
0,41:11.7,0:32,60,0,41:17.2,1540932077,0.249314489,0.036750558,-0.051416053,-0.015258789,-0.102203369,-1.110656738,37.15034485,14.40649414,-72.69165039
0,41:11.7,0:32,60,0,41:17.3,1540932077,0.327712358,0.043048934,-0.191710048,0.008407593,-0.098831177,-1.161468506,37.15034485,14.40649414,-72.69165039
0,41:11.7,0:32,60,0,41:17.3,1540932077,0.263047079,-0.121486751,-0.274353795,0.013900757,-0.108673096,-1.15222168,37.21218872,14.39428711,-72.68873596
0,41:11.7,0:32,60,0,41:17.3,1540932077,0.263047079,-0.121486751,-0.274353795,0.013900757,-0.108673096,-1.15222168,37.21218872,14.39428711,-72.68873596
0,41:11.7,0:32,60,0,41:17.3,1540932077,-0.023966586,-0.883089037,-0.630750263,-0.059280396,-0.116241455,-1.12940979,36.71180725,14.18214417,-72.8019104
0,41:11.7,0:32,60,0,41:17.3,1540932077,-0.112551313,-1.144362984,-0.807743417,-0.086380005,-0.109909058,-1.076461792,36.20161438,14.36018372,-72.97914124
0,41:11.7,0:32,60,0,41:17.3,1540932077,-0.112551313,-1.144362984,-0.807743417,-0.086380005,-0.109909058,-1.076461792,35.29936218,14.07279968,-72.80474854
0,41:11.7,0:32,60,0,41:17.4,1540932077,-0.026531742,-0.799319838,-1.016156544,-0.14276123,-0.162506104,-0.982513428,34.28533936,14.73878479,-72.9912262
0,41:11.7,0:32,60,0,41:17.4,1540932077,0.080994985,-0.331481797,-0.878535032,-0.127609253,-0.210479736,-0.960479736,33.75852966,14.68783569,-72.86567688
0,41:11.7,0:32,60,0,41:17.4,1540932077,0.14558969,0.099269596,-0.559973295,-0.058914185,-0.231079102,-0.955551147,33.75852966,14.68783569,-72.86567688
0,41:11.7,0:32,60,0,41:17.4,1540932077,0.100659233,0.440118529,-0.216866268,-0.009902954,-0.196548462,-0.932266235,34.06770325,14.62678528,-72.85113525
0,41:11.7,0:32,60,0,41:17.4,1540932077,0.027302461,0.526665938,-0.045403967,-0.023651123,-0.146362305,-0.97277832,34.24880981,14.28044128,-72.77610779
0,41:11.7,0:32,60,0,41:17.4,1540932077,-0.062110243,0.450532821,0.003783287,-0.024719238,-0.091339111,-0.993499756,34.63189697,14.8269043,-72.50073242
0,41:11.7,0:32,60,0,41:17.5,1540932077,-0.145776112,0.297833023,-0.017802167,-0.020507813,-0.051101685,-1.005264282,34.80187988,14.87062073,-72.64598083
0,41:11.7,0:32,60,0,41:17.5,1540932077,-0.196243813,0.087506413,-0.043750144,0.001876831,-0.035247803,-1.020599365,34.84104919,15.32920837,-72.54872131
0,41:11.7,0:32,60,0,41:17.5,1540932077,-0.192142013,-0.142937182,-0.038681083,0.026748657,-0.041870117,-1.027130127,34.84104919,15.32920837,-72.54872131
0,41:11.7,0:32,60,0,41:17.5,1540932078,-0.151566889,-0.308830014,-0.034612039,0.025375366,-0.058578491,-0.99005127,34.73286438,15.27326965,-72.40058899
0,41:11.7,0:32,60,0,41:17.5,1540932078,-0.145486094,-0.332713775,-0.027146933,0.010345459,-0.079498291,-0.913726807,34.53253174,15.39033508,-72.48516846
0,41:11.7,0:32,60,0,41:17.5,1540932078,-0.140915576,-0.289604654,0.000747549,-0.003677368,-0.103393555,-0.866088867,34.48487854,15.322052,-72.49031067
0,41:11.7,0:32,60,0,41:17.6,1540932078,-0.087662208,-0.242383612,-0.03454546,-0.028884888,-0.108596802,-0.867080688,34.27603149,15.82943726,-72.48277283
0,41:11.7,0:32,60,0,41:17.6,1540932078,-0.003479686,-0.165062991,-0.097651193,-0.03427124,-0.113098145,-0.867599487,34.0994873,16.1762085,-72.01112366
0,41:11.7,0:32,60,0,41:17.6,1540932078,0.041710429,-0.066074358,-0.076122731,-0.014846802,-0.152008057,-0.861557007,34.12527466,16.01496887,-72.32795715
0,41:11.7,0:32,60,0,41:17.6,1540932078,0.055156729,0.03833141,0.019309516,0.009674072,-0.191772461,-0.873748779,34.12527466,16.01496887,-72.32795715
0,41:11.7,0:32,60,0,41:17.6,1540932078,0.080265545,0.158686584,0.155451376,0.007629395,-0.207336426,-0.919296265,34.30636597,15.66864014,-72.25292969
0,41:11.7,0:32,60,0,41:17.6,1540932078,0.179215295,0.253948655,0.168395404,-0.025238037,-0.171676636,-0.982833862,34.47703552,15.71243286,-72.32009888
0,41:11.7,0:32,60,0,41:17.7,1540932078,0.322111997,0.28440643,0.052745503,-0.047592163,-0.137130737,-1.032363892,34.51243591,15.86140442,-72.07844543
0,41:11.7,0:32,60,0,41:17.7,1540932078,0.413701835,0.230128011,-0.11761052,-0.044708252,-0.129501343,-1.05128479,34.84300232,15.32940674,-72.31445313
0,41:11.7,0:32,60,0,41:17.7,1540932078,0.408258334,0.18947752,-0.217249496,-0.016052246,-0.154220581,-1.039123535,34.86096191,15.55856323,-72.46102905
0,41:11.7,0:32,60,0,41:17.7,1540932078,0.324913909,0.198690459,-0.157249809,0.031295776,-0.205566406,-1.023498535,34.86096191,15.55856323,-72.46102905
0,41:11.7,0:32,60,0,41:17.7,1540932078,0.243395347,0.191434677,-0.040515202,0.059249878,-0.226898193,-1.038497925,35.11482239,15.11920166,-72.77581787
0,41:11.7,0:32,60,0,41:17.7,1540932078,0.138162667,0.121823108,0.038668034,0.057342529,-0.229415894,-1.048812866,34.96032715,14.99510193,-72.47660828
0,41:11.7,0:32,60,0,41:17.8,1540932078,-0.016914269,0.020280238,0.108186126,0.039962769,-0.230026245,-1.040252686,35.13162231,15.03897095,-72.46565247
0,41:11.7,0:32,60,0,41:17.8,1540932078,-0.142611477,0.001940645,0.127469276,-0.000183105,-0.218765259,-1.037780762,35.04646301,15.52192688,-72.45230103
0,41:11.7,0:32,60,0,41:17.8,1540932078,-0.192114316,0.113885823,0.111556356,-0.026504517,-0.204833984,-1.05670166,35.21969604,15.56596375,-72.20707703
0,41:11.7,0:32,60,0,41:17.8,1540932078,-0.209059477,0.215724038,0.110615195,0.005783081,-0.188018799,-1.089157104,35.21969604,15.56596375,-72.20707703
0,41:11.7,0:32,60,0,41:17.8,1540932078,-0.240643502,0.236307876,0.17811248,0.069046021,-0.179580688,-1.117401123,35.1030426,15.90034485,-71.96679688
0,41:11.7,0:32,60,0,41:17.8,1540932078,-0.31048144,0.133655533,0.320427281,0.122711182,-0.168563843,-1.133880615,35.45986938,15.90757751,-71.9471283
0,41:11.7,0:32,60,0,41:17.9,1540932078,-0.469623425,-0.04706285,0.454100391,0.127380371,-0.131271362,-1.113311768,35.56803894,15.96348572,-72.09527588
0,41:11.7,0:32,60,0,41:17.9,1540932078,-0.625679604,-0.147399042,0.49470694,0.077636719,-0.071670532,-1.082122803,35.51956177,16.59555054,-71.68406677
0,41:11.7,0:32,60,0,41:17.9,1540932078,-0.635121576,-0.161043748,0.413306889,0.026931763,-0.004486084,-1.097671509,35.42851257,17.46907043,-71.26622009
0,41:11.7,0:32,60,0,41:17.9,1540932078,-0.14907417,-0.014187192,0.118884044,-0.010269165,0.012161255,-1.128768921,35.44515991,17.69810486,-71.5690155
0,41:11.7,0:32,60,0,41:17.9,1540932078,-0.14907417,-0.014187192,0.118884044,-0.010269165,0.012161255,-1.128768921,35.44515991,17.69810486,-71.5690155
0,41:11.7,0:32,60,0,41:17.9,1540932078,0.033346239,0.083779852,0.066488746,-0.003890991,-0.042175293,-1.05645752,35.63980103,17.27120972,-71.57432556
0,41:11.7,0:32,60,0,41:18.0,1540932078,-0.085074947,0.176561988,0.139450305,0.024703979,-0.124221802,-0.907363892,35.78796387,17.08540344,-72.04153442
0,41:11.7,0:32,60,0,41:18.0,1540932078,-0.085074947,0.176561988,0.139450305,0.024703979,-0.124221802,-0.907363892,35.7853241,17.47628784,-71.24653625
0,41:11.7,0:32,60,0,41:18.0,1540932078,-0.190935334,0.149177767,0.209048026,0.038299561,-0.120559692,-0.905029297,35.86070251,17.38352966,-71.32394409
0,41:11.7,0:32,60,0,41:18.0,1540932078,-0.078866054,-0.040085102,0.205574997,0.021438599,-0.093780518,-0.945587158,35.79103088,17.78613281,-71.15663147
0,41:11.7,0:32,60,0,41:18.0,1540932078,-0.078866054,-0.040085102,0.205574997,0.021438599,-0.093780518,-0.945587158,35.79103088,17.78613281,-71.15663147
0,41:11.7,0:32,60,0,41:18.0,1540932078,0.093947535,-0.055740494,0.189451155,-0.001480103,-0.122055054,-0.870193481,36.07901001,17.49560547,-71.38595581
0,41:11.7,0:32,60,0,41:18.1,1540932078,0.132512771,0.011949337,0.209871741,-0.016464233,-0.142333984,-0.855453491,35.96888733,17.43948364,-71.47210693
0,41:11.7,0:32,60,0,41:18.1,1540932078,0.132512771,0.011949337,0.209871741,-0.016464233,-0.142333984,-0.855453491,36.0344696,17.7368927,-71.61357117
0,41:11.7,0:32,60,0,41:18.1,1540932078,0.219137944,0.125986961,0.155377606,-0.046905518,-0.15397644,-0.889297485,36.22128296,17.70039368,-71.44865417
0,41:11.7,0:32,60,0,41:18.1,1540932078,0.256571336,0.16697301,0.094380032,-0.044433594,-0.156982422,-0.91897583,36.29602051,17.6075592,-71.60415649
0,41:11.7,0:32,60,0,41:18.1,1540932078,0.256571336,0.16697301,0.094380032,-0.044433594,-0.156982422,-0.91897583,36.29602051,17.6075592,-71.60415649
0,41:11.7,0:32,60,0,41:18.1,1540932078,0.28638649,0.291346095,0.025991121,-0.012115479,-0.169006348,-0.998474121,36.12599182,17.56384277,-71.45892334
0,41:11.7,0:32,60,0,41:18.2,1540932078,0.321775906,0.351602245,0.019631758,0.002761841,-0.170700073,-1.057998657,36.55183411,17.168396,-71.68464661
0,41:11.7,0:32,60,0,41:18.2,1540932078,0.359179737,0.397850967,-0.004950018,0.009216309,-0.161834717,-1.099517822,36.67356873,17.14379883,-71.91313171
0,41:11.7,0:32,60,0,41:18.2,1540932078,0.361133432,0.369916005,-0.056386311,0.01890564,-0.155075073,-1.13835144,36.93315125,17.01426697,-72.13801575
0,41:11.7,0:32,60,0,41:18.2,1540932078,0.318263729,0.291481383,-0.084315147,0.049545288,-0.150726318,-1.164154053,36.79917908,17.11955261,-71.67300415
0,41:11.7,0:32,60,0,41:18.2,1540932078,0.249600778,0.164583355,-0.1026598,0.069366455,-0.153671265,-1.176116943,37.19340515,16.88479614,-72.28477478
0,41:11.7,0:32,60,0,41:18.2,1540932078,0.16387815,0.010933075,-0.152088336,0.056945801,-0.156555176,-1.16897583,37.19340515,16.88479614,-72.28477478
0,41:11.7,0:32,60,0,41:18.3,1540932078,0.16387815,0.010933075,-0.152088336,0.056945801,-0.156555176,-1.16897583,37.08717346,16.82904053,-71.90235901
0,41:11.7,0:32,60,0,41:18.3,1540932078,-0.059751481,-0.26195971,-0.345126236,0.015930176,-0.171783447,-1.108825684,37.17153931,16.65527344,-72.60675049
0,41:11.7,0:32,60,0,41:18.3,1540932078,-0.136046253,-0.32037748,-0.429778007,-0.008758545,-0.195968628,-1.10067749,36.52020264,17.32905579,-72.07069397
0,41:11.7,0:32,60,0,41:18.3,1540932078,-0.22938632,-0.380008853,-0.440537711,0.003875732,-0.205429077,-1.08996582,36.08930969,17.41473389,-71.85676575
0,41:11.7,0:32,60,0,41:18.3,1540932078,-0.352468571,-0.455694559,-0.42239679,-0.003845215,-0.198501587,-1.075698853,35.87150574,17.61198425,-72.3296051
0,41:11.7,0:32,60,0,41:18.3,1540932078,-0.427695948,-0.389964548,-0.450140004,-0.034744263,-0.146392822,-1.04083252,35.87150574,17.61198425,-72.3296051
0,41:11.7,0:32,60,0,41:18.4,1540932078,-0.333248271,-0.11918578,-0.50015923,-0.062240601,-0.089172363,-1.027023315,35.54878235,17.75358582,-72.26385498
0,41:11.7,0:32,60,0,41:18.4,1540932078,-0.045064414,0.234064696,-0.541556471,-0.067947388,-0.05116272,-1.038131714,35.54618835,17.75332642,-72.57623291
0,41:11.7,0:32,60,0,41:18.4,1540932078,0.275230508,0.533892426,-0.554114074,-0.049209595,-0.042831421,-1.02722168,35.76643372,17.86558533,-72.40394592
0,41:11.7,0:32,60,0,41:18.4,1540932078,0.417731198,0.666519979,-0.52292979,-0.026855469,-0.074401855,-0.981781006,35.8604126,18.00202942,-72.54988098
0,41:11.7,0:32,60,0,41:18.4,1540932078,0.375339266,0.656969617,-0.467246553,-0.010284424,-0.114746094,-0.932113647,36.21723938,18.00924683,-72.53019714
0,41:11.7,0:32,60,0,41:18.4,1540932078,0.179646993,0.621563423,-0.339810567,0.027542114,-0.124969482,-0.876220703,36.47306824,17.57009888,-72.61068726
0,41:11.7,0:32,60,0,41:18.5,1540932078,-0.109863118,0.492722086,-0.153569853,0.063613892,-0.115753174,-0.86656189,36.47306824,17.57009888,-72.61068726
0,41:11.7,0:32,60,0,41:18.5,1540932078,-0.286234956,0.262624968,-0.072425731,0.057830811,-0.061035156,-0.912017822,36.82728577,17.57707214,-72.90341187
0,41:11.7,0:32,60,0,41:18.5,1540932078,-0.310657209,0.007903729,-0.148765244,0.031600952,0.003646851,-0.944458008,36.92826843,18.0234375,-72.80322266
0,41:11.7,0:32,60,0,41:18.5,1540932079,-0.29663247,-0.215481424,-0.309673437,0.019714355,0.020965576,-0.917022705,36.61125183,18.47488403,-72.64755249
0,41:11.7,0:32,60,0,41:18.5,1540932079,-0.333622712,-0.359616496,-0.42121195,0.027297974,-0.013885498,-0.863128662,36.18347168,18.87013245,-72.65611267
0,41:11.7,0:32,60,0,41:18.5,1540932079,-0.373321389,-0.424247687,-0.39236885,0.048706055,-0.088043213,-0.835876465,35.98312378,18.9871521,-72.74069214
0,41:11.7,0:32,60,0,41:18.6,1540932079,-0.341202867,-0.341828976,-0.253062888,0.055038452,-0.136367798,-0.835662842,35.98312378,18.9871521,-72.74069214
0,41:11.7,0:32,60,0,41:18.6,1540932079,-0.160413378,-0.155822621,-0.13829476,0.031692505,-0.154266357,-0.875457764,35.80329895,19.33363342,-72.65953064
0,41:11.7,0:32,60,0,41:18.6,1540932079,0.061739265,0.035537488,-0.109198926,0.011810303,-0.14906311,-0.91355896,35.65713501,19.12846375,-73.06541443
0,41:11.7,0:32,60,0,41:18.6,1540932079,0.231846282,0.170371736,-0.155120611,0.010910034,-0.150177002,-0.937271118,35.58746338,19.53105164,-72.89810181
0,41:11.7,0:32,60,0,41:18.6,1540932079,0.284625874,0.160409117,-0.224751621,0.039764404,-0.160736084,-0.961364746,35.76855469,19.1847229,-72.82305908
0,41:11.7,0:32,60,0,41:18.6,1540932079,0.254250924,0.069879749,-0.233422874,0.081176758,-0.184646606,-0.984451294,35.64294434,19.20896912,-73.06318665
0,41:11.7,0:32,60,0,41:18.7,1540932079,0.24809556,-0.010305901,-0.18211894,0.097961426,-0.215438843,-1.018722534,35.64294434,19.20896912,-73.06318665
0,41:11.7,0:32,60,0,41:18.7,1540932079,0.255316188,-3.04E-05,-0.06431321,0.10395813,-0.239654541,-1.036224365,35.84788513,18.70118713,-73.53929138
0,41:11.7,0:32,60,0,41:18.7,1540932079,0.211416641,0.23789299,0.319359354,0.117614746,-0.225982666,-1.073654175,36.02507019,18.35449219,-73.93284607
0,41:11.7,0:32,60,0,41:18.7,1540932079,0.211416641,0.23789299,0.319359354,0.117614746,-0.225982666,-1.073654175,36.26522827,18.6960907,-73.6729126
0,41:11.7,0:32,60,0,41:18.7,1540932079,0.217951239,0.282850877,0.421145104,0.111312866,-0.161773682,-1.136672974,36.30845642,18.45466614,-73.60148621
0,41:11.7,0:32,60,0,41:18.7,1540932079,0.221953971,0.003331082,0.256957495,0.060913086,-0.081436157,-1.187774658,36.50753784,18.3374939,-73.67308044
0,41:11.7,0:32,60,0,41:18.8,1540932079,0.221953971,0.003331082,0.256957495,0.060913086,-0.081436157,-1.187774658,36.64213562,18.23225403,-74.05996704
0,41:11.7,0:32,60,0,41:18.8,1540932079,0.125143804,-0.24685932,0.032862076,0.029815674,-0.082641602,-1.1509552,36.64213562,18.23225403,-74.05996704
0,41:11.7,0:32,60,0,41:18.8,1540932079,-0.013207148,-0.311854299,-0.151373011,0.020385742,-0.116317749,-1.09223938,36.59384155,18.16389465,-74.14318848
0,41:11.7,0:32,60,0,41:18.8,1540932079,-0.136842538,-0.234864975,-0.173736374,0.076965332,-0.155502319,-1.062820435,36.31747437,18.37367249,-74.22846985
0,41:11.7,0:32,60,0,41:18.8,1540932079,-0.317932432,-0.0001012,0.247445482,0.223007202,-0.177322388,-1.089584351,36.07843018,18.73260498,-73.83781433
0,41:11.7,0:32,60,0,41:18.8,1540932079,-0.317932432,-0.0001012,0.247445482,0.223007202,-0.177322388,-1.089584351,36.31468201,19.07380676,-74.04644775
0,41:11.7,0:32,60,0,41:18.9,1540932079,-0.325215645,-0.037885597,0.517257789,0.221801758,-0.142700195,-1.115753174,36.31468201,19.07380676,-74.04644775
0,41:11.7,0:32,60,0,41:18.9,1540932079,-0.156677495,0.039702672,0.45520294,0.078018188,-0.020614624,-1.064331055,36.54653931,19.10533142,-74.18876648
0,41:11.7,0:32,60,0,41:18.9,1540932079,-0.156677495,0.039702672,0.45520294,0.078018188,-0.020614624,-1.064331055,36.88604736,18.88346863,-73.94438171
0,41:11.7,0:32,60,0,41:18.9,1540932079,-0.147402238,0.097457315,0.325697677,0.071029663,-0.019104004,-1.0184021,36.94967651,19.18069458,-74.32014465
0,41:11.7,0:32,60,0,41:18.9,1540932079,-0.245831873,0.044578653,0.261404441,0.114608765,-0.091339111,-1.00088501,36.88441467,19.89297485,-74.21913147
0,41:11.7,0:32,60,0,41:18.9,1540932079,-0.245831873,0.044578653,0.261404441,0.114608765,-0.091339111,-1.00088501,36.94689941,19.88084412,-74.13812256
0,41:11.7,0:32,60,0,41:19.0,1540932079,-0.276129591,-0.135930672,0.304023541,0.094924927,-0.108963013,-0.967391968,37.04348755,20.01751709,-73.97166443
0,41:11.7,0:32,60,0,41:19.0,1540932079,-0.236782451,-0.089996203,0.35333037,0.084182739,-0.104614258,-0.946563721,37.04348755,20.01751709,-73.97166443
0,41:11.7,0:32,60,0,41:19.0,1540932079,-0.236782451,-0.089996203,0.35333037,0.084182739,-0.104614258,-0.946563721,37.4402771,19.78302002,-74.27104187
0,41:11.7,0:32,60,0,41:19.0,1540932079,-0.011297662,0.009390839,0.383382812,0.071716309,-0.088882446,-0.965774536,37.34436035,19.64640808,-74.35940552
0,41:11.7,0:32,60,0,41:19.0,1540932079,0.074437217,-0.072449966,0.357560535,0.066635132,-0.103897095,-0.971084595,37.36930847,20.18548584,-74.25991821
0,41:11.7,0:32,60,0,41:19.0,1540932079,0.074437217,-0.072449966,0.357560535,0.066635132,-0.103897095,-0.971084595,37.3551178,20.26597595,-74.25769043
0,41:11.7,0:32,60,0,41:19.1,1540932079,0.147535662,-0.271897828,0.28983262,0.046966553,-0.143051147,-0.919708252,37.39768982,20.02450562,-74.26435852
0,41:11.7,0:32,60,0,41:19.1,1540932079,0.165932513,-0.222328944,0.29203106,0.025588989,-0.159866333,-0.888900757,37.39768982,20.02450562,-74.26435852
0,41:11.7,0:32,60,0,41:19.1,1540932079,0.201084109,-0.081945733,0.264353359,6.10E-05,-0.1615448,-0.885070801,37.542099,19.52906799,-74.58718872
0,41:11.7,0:32,60,0,41:19.1,1540932079,0.27073669,0.022503179,0.21413493,-0.00201416,-0.159957886,-0.924560547,37.64523315,19.27526855,-74.74716187
0,41:11.7,0:32,60,0,41:19.1,1540932079,0.334349755,0.044846301,0.154178918,0.006500244,-0.164886475,-0.970611572,37.87332153,18.99714661,-74.74511719
0,41:11.7,0:32,60,0,41:19.1,1540932079,0.3815684,0.016348347,0.134856885,0.028808594,-0.172821045,-1.009796143,37.6902771,19.34329224,-75.05441284
0,41:11.7,0:32,60,0,41:19.2,1540932079,0.387621232,-0.006522082,0.159457037,0.038589478,-0.186843872,-1.034454346,37.76695251,19.25065613,-74.97561646
0,41:11.7,0:32,60,0,41:19.2,1540932079,0.325836694,0.049040247,0.207729228,0.040679932,-0.181243896,-1.034988403,37.76695251,19.25065613,-74.97561646
0,41:11.7,0:32,60,0,41:19.2,1540932079,0.243819855,0.081052775,0.2431269,0.03817749,-0.156005859,-1.070465088,38.09492493,18.71841431,-75.52401733
0,41:11.7,0:32,60,0,41:19.2,1540932079,0.194148172,0.062184811,0.212060593,0.03012085,-0.110733032,-1.12097168,38.4287262,18.18673706,-75.36952209
0,41:11.7,0:32,60,0,41:19.2,1540932079,0.209679727,0.006250439,0.09740565,0.014221191,-0.072235107,-1.155212402,38.65423584,17.90838623,-75.67985535
0,41:11.7,0:32,60,0,41:19.2,1540932079,0.271374783,-0.082425368,-0.054780957,-0.004730225,-0.065414429,-1.169113159,38.27732849,18.3722229,-75.29278564
0,41:11.7,0:32,60,0,41:19.3,1540932079,0.24553999,-0.173484439,-0.21230374,-0.015625,-0.085235596,-1.134902954,38.33149719,18.04998779,-75.61408997
0,41:11.7,0:32,60,0,41:19.3,1540932079,0.122230039,-0.313357654,-0.370934131,-0.035934448,-0.138000488,-1.101089478,37.95285034,17.81323242,-75.95574951
0,41:11.7,0:32,60,0,41:19.3,1540932079,-0.114340691,-0.478453668,-0.441757705,-0.020401001,-0.182754517,-1.063140869,37.95285034,17.81323242,-75.95574951
0,41:11.7,0:32,60,0,41:19.3,1540932079,-0.34910127,-0.529533364,-0.358236978,0.012420654,-0.188247681,-1.029388428,37.87809753,17.90605164,-75.80023193
0,41:11.7,0:32,60,0,41:19.3,1540932079,-0.378102029,-0.447532503,-0.238192329,-0.018096924,-0.179855347,-1.060012817,37.36791992,18.0841217,-75.97747803
0,41:11.7,0:32,60,0,41:19.3,1540932079,-0.237854374,-0.212267521,-0.172613319,-0.050842285,-0.120178223,-1.067764282,37.00521851,18.467453,-75.59263611
0,41:11.7,0:32,60,0,41:19.4,1540932079,-0.015082547,0.025904302,-0.220561936,-0.080078125,-0.069122314,-1.068603516,36.96768188,19.01869202,-75.57414246
0,41:11.7,0:32,60,0,41:19.4,1540932079,0.140436207,0.170754432,-0.301806193,-0.076873779,-0.054504395,-1.032928467,36.92134094,18.95053101,-75.42308044
0,41:11.7,0:32,60,0,41:19.4,1540932079,0.172123297,0.169488632,-0.331799512,-0.041595459,-0.082763672,-0.992050171,36.92134094,18.95053101,-75.42308044
0,41:11.7,0:32,60,0,41:19.4,1540932079,0.084462953,0.052306082,-0.299797104,-0.020385742,-0.127761841,-0.94859314,37.31178284,18.40614319,-75.89047241
0,41:11.7,0:32,60,0,41:19.4,1540932079,-0.073630013,-0.031936361,-0.221690051,-0.005462646,-0.150482178,-0.901199341,37.35177612,18.16441345,-76.20953369
0,41:11.7,0:32,60,0,41:19.4,1540932079,-0.209705294,-0.011611116,-0.109191735,-0.010650635,-0.159744263,-0.873809814,37.1461792,18.67211914,-75.81152344
0,41:11.7,0:32,60,0,41:19.5,1540932079,-0.329072169,0.1047613,0.017342239,-0.00390625,-0.145111084,-0.860488892,37.18467712,19.13063049,-75.7923584
0,41:11.7,0:32,60,0,41:19.5,1540932079,-0.325211917,0.08495111,0.093348057,0.003433228,-0.089874268,-0.983398438,37.49957275,19.37942505,-75.68791199
0,41:11.7,0:32,60,0,41:19.5,1540932079,-0.325211917,0.08495111,0.093348057,0.003433228,-0.089874268,-0.983398438,37.46922302,19.54020691,-75.91775513
0,41:11.7,0:32,60,0,41:19.5,1540932080,-0.243435827,-0.090758932,0.019222164,-0.017776489,-0.076873779,-1.007049561,37.46922302,19.54020691,-75.91775513
0,41:11.7,0:32,60,0,41:19.5,1540932080,-0.213638783,-0.191300454,-0.064436248,-0.035140991,-0.075866699,-0.972183228,37.69732666,19.26210022,-75.91569519
0,41:11.7,0:32,60,0,41:19.5,1540932080,-0.215559721,-0.18031598,-0.101902397,-0.040084839,-0.090606689,-0.934463501,37.49891663,19.37934875,-75.76600647
0,41:11.7,0:32,60,0,41:19.6,1540932080,-0.119749038,-0.088170073,-0.113591277,-0.045898438,-0.11138916,-0.949127197,37.11941528,19.84292603,-75.69132996
0,41:11.7,0:32,60,0,41:19.6,1540932080,0.045875347,0.031350466,-0.105987686,-0.040481567,-0.126800537,-0.969970703,37.18693542,20.14053345,-75.59851074
0,41:11.7,0:32,60,0,41:19.6,1540932080,0.220292957,0.075129639,-0.112400844,-0.036346436,-0.136581421,-0.989059448,37.36351013,19.79376221,-76.07019043
0,41:11.7,0:32,60,0,41:19.6,1540932080,0.439362724,0.035401933,-0.170329125,-0.033691406,-0.148742676,-0.988037109,37.36351013,19.79376221,-76.07019043
0,41:11.7,0:32,60,0,41:19.6,1540932080,0.439362724,0.035401933,-0.170329125,-0.033691406,-0.148742676,-0.988037109,37.56793213,18.97669983,-76.01142883
0,41:11.7,0:32,60,0,41:19.6,1540932080,0.50118428,0.09447271,-0.214176475,-0.034317017,-0.15234375,-0.968139648,37.69815063,18.56176758,-76.33203125
0,41:11.7,0:32,60,0,41:19.7,1540932080,0.533864463,0.210844328,-0.181914941,0.013580322,-0.200637817,-0.996170044,37.39907837,19.24234009,-76.32295227
0,41:11.7,0:32,60,0,41:19.7,1540932080,0.533864463,0.210844328,-0.181914941,0.013580322,-0.200637817,-0.996170044,37.62586975,18.96409607,-76.47709656
0,41:11.7,0:32,60,0,41:19.7,1540932080,0.469721163,0.25854101,-0.054408115,0.046783447,-0.225234985,-1.004608154,37.81988525,18.53715515,-76.5605011
0,41:11.7,0:32,60,0,41:19.7,1540932080,0.166063008,0.200028698,0.159765164,0.066879272,-0.196075439,-1.046783447,37.81988525,18.53715515,-76.5605011
0,41:11.7,0:32,60,0,41:19.7,1540932080,0.166063008,0.200028698,0.159765164,0.066879272,-0.196075439,-1.046783447,38.43057251,18.1050415,-76.85559082
0,41:11.7,0:32,60,0,41:19.7,1540932080,0.019984361,-0.088269143,0.116610237,0.037399292,-0.129760742,-1.111984253,38.48344421,17.78266907,-77.33306885
0,41:11.7,0:32,60,0,41:19.8,1540932080,-0.019571305,-0.176033084,-0.020558805,0.014434814,-0.110305786,-1.083236694,38.41767883,18.18565369,-76.69718933
0,41:11.7,0:32,60,0,41:19.8,1540932080,0.094055659,0.295353353,-0.243814795,0.008773804,-0.145187378,-0.96937561,38.40594482,18.57562256,-76.99551392
0,41:11.7,0:32,60,0,41:19.8,1540932080,0.238460776,0.49539084,-0.304641927,0.062194824,-0.158889771,-0.993438721,38.40594482,18.57562256,-76.99551392
0,41:11.7,0:32,60,0,41:19.8,1540932080,0.338363139,0.453570688,-0.364685823,0.099914551,-0.19984436,-1.029434204,38.78546143,18.11206055,-77.07020569
0,41:11.7,0:32,60,0,41:19.8,1540932080,0.210208631,0.304118615,-0.280241246,0.184661865,-0.234954834,-0.991134644,39.19711304,17.7971344,-77.29370117
0,41:11.7,0:32,60,0,41:19.9,1540932080,-0.076177592,0.177303412,-0.067227241,0.227371216,-0.253265381,-0.946578979,39.39355469,17.6796875,-77.6776886
0,41:11.7,0:32,60,0,41:19.9,1540932080,-0.402556772,0.183640137,0.213424931,0.226455688,-0.232025146,-0.920532227,39.021698,18.45326233,-77.27882385
0,41:11.7,0:32,60,0,41:19.9,1540932080,-0.606965571,0.249624747,0.432011334,0.201797485,-0.162780762,-0.951538086,39.4524231,19.06800842,-76.99833679
0,41:11.7,0:32,60,0,41:19.9,1540932080,-0.59670095,0.228829986,0.468392511,0.156814575,-0.065536499,-1.039672852,39.4524231,19.06800842,-76.99833679
0,41:11.7,0:32,60,0,41:19.9,1540932080,-0.502849289,0.102758071,0.394324942,0.107772827,-0.029067993,-1.092102051,39.71965027,19.24847412,-76.89900208
0,41:11.7,0:32,60,0,41:19.9,1540932080,-0.482725911,-0.017155285,0.309574101,0.072341919,-0.027435303,-1.061721802,40.07647705,19.25570679,-76.8793335
0,41:11.7,0:32,60,0,41:20.0,1540932080,-0.549657274,-0.187265765,0.274041939,0.05947876,-0.053695679,-1.031997681,40.2026062,19.54078674,-77.17408752
0,41:11.7,0:32,60,0,41:20.0,1540932080,-0.590997524,-0.335848316,0.203191734,0.030288696,-0.055267334,-1.019638062,39.88230896,20.38305664,-76.30151367
0,41:11.7,0:32,60,0,41:20.0,1540932080,-0.532590939,-0.422590668,0.116330871,0.008789063,-0.057998657,-1.014694214,39.53623962,20.9954071,-76.21949768
0,41:11.7,0:32,60,0,41:20.0,1540932080,-0.375013295,-0.387101383,0.059581039,0.003829956,-0.071838379,-0.998840332,39.16522217,21.06866455,-76.23693848
0,41:11.7,0:32,60,0,41:20.0,1540932080,-0.149592422,-0.302710602,0.053205698,0.018768311,-0.102478027,-0.990188599,39.16522217,21.06866455,-76.23693848
0,41:11.7,0:32,60,0,41:20.0,1540932080,-0.003680489,-0.239591554,0.147484263,0.050949097,-0.153381348,-0.958740234,39.41125488,21.01968384,-76.38150024
0,41:11.7,0:32,60,0,41:20.1,1540932080,0.00861213,-0.243541288,0.294184492,0.062072754,-0.195755005,-0.923873901,39.27798462,20.73390198,-76.94580078
0,41:11.7,0:32,60,0,41:20.1,1540932080,-0.057536264,-0.304892264,0.377651955,0.038726807,-0.197250366,-0.900756836,39.16522217,21.06866455,-76.23693848
0,41:11.7,0:32,60,0,41:20.1,1540932080,-0.096839461,-0.336929026,0.369055005,-0.009994507,-0.178894043,-0.903335571,39.01185608,21.25395203,-76.39450073
0,41:11.7,0:32,60,0,41:20.1,1540932080,-0.056398029,-0.317509788,0.284471144,-0.04826355,-0.154296875,-0.931762695,38.87333679,21.35879517,-76.47618103
0,41:11.7,0:32,60,0,41:20.1,1540932080,0.034209636,-0.242199854,0.167818297,-0.061523438,-0.136901855,-0.962860107,38.69128418,20.69535828,-76.58886719
0,41:11.7,0:32,60,0,41:20.1,1540932080,0.126906816,-0.163755112,0.07365691,-0.055953979,-0.13722229,-1.00328064,38.69128418,20.69535828,-76.58886719
0,41:11.7,0:32,60,0,41:20.2,1540932080,0.252626396,-0.153880111,0.007245396,-0.025878906,-0.170928955,-1.0703125,38.59779358,20.8682251,-76.97779846
0,41:11.7,0:32,60,0,41:20.2,1540932080,0.252626396,-0.153880111,0.007245396,-0.025878906,-0.170928955,-1.0703125,38.53479004,20.57106018,-76.52392578
0,41:11.7,0:32,60,0,41:20.2,1540932080,0.272150296,-0.096750778,0.00945289,-0.019210815,-0.169677734,-1.070678711,38.31506348,20.76809692,-77.2310791
0,41:11.7,0:32,60,0,41:20.2,1540932080,0.230963977,0.010651046,0.02779994,-0.015090942,-0.149703979,-1.105010986,38.37165833,21.14654541,-76.74555969
0,41:11.7,0:32,60,0,41:20.2,1540932080,0.221791251,0.033628534,-0.01607484,-0.017654419,-0.129074097,-1.124588013,38.41313171,20.20454407,-77.40284729
0,41:11.7,0:32,60,0,41:20.2,1540932080,0.219805598,0.031741418,-0.080328395,-0.022186279,-0.121063232,-1.138061523,38.41313171,20.20454407,-77.40284729
0,41:11.7,0:32,60,0,41:20.3,1540932080,0.172988558,-0.031290012,-0.163922092,-0.022491455,-0.124160767,-1.129608154,38.52339172,19.95143127,-76.70376587
0,41:11.7,0:32,60,0,41:20.3,1540932080,0.065666096,-0.255810737,-0.290534896,-0.036605835,-0.129776001,-1.127456665,38.63356018,19.6164093,-77.72499084
0,41:11.7,0:32,60,0,41:20.3,1540932080,-0.090739491,-0.548937688,-0.453629811,-0.078445435,-0.143676758,-1.111923218,37.90684509,20.38298035,-77.11149597
0,41:11.7,0:32,60,0,41:20.3,1540932080,-0.249987469,-0.690753413,-0.581198955,-0.089782715,-0.128112793,-1.042617798,37.42752075,20.70953369,-77.59378052
0,41:11.7,0:32,60,0,41:20.3,1540932080,-0.282853274,-0.636787916,-0.743895461,-0.14201355,-0.122772217,-1.007644653,36.50192261,20.8928833,-77.40312195
0,41:11.7,0:32,60,0,41:20.3,1540932080,-0.154655357,-0.383321825,-0.873187937,-0.161300659,-0.135223389,-0.991744995,36.50192261,20.8928833,-77.40312195
0,41:11.7,0:32,60,0,41:20.4,1540932080,0.026204174,0.007493603,-0.854544744,-0.122192383,-0.173034668,-0.97076416,36.23532104,20.71247864,-77.42433167
0,41:11.7,0:32,60,0,41:20.4,1540932080,0.157215454,0.408892433,-0.658113444,-0.057922363,-0.214813232,-0.949630737,35.65567017,20.5927124,-77.92869568
0,41:11.7,0:32,60,0,41:20.4,1540932080,0.112135327,0.622151449,-0.324801523,0.02746582,-0.218353271,-0.937393188,35.88356018,21.01498413,-77.4322052
0,41:11.7,0:32,60,0,41:20.4,1540932080,0.037082654,0.657605313,-0.084866688,0.038223267,-0.178222656,-0.961303711,36.0065918,20.99050903,-77.50450134
0,41:11.7,0:32,60,0,41:20.4,1540932080,-0.000639958,0.585276787,-0.029262015,-0.003845215,-0.111602783,-0.990570068,36.45933533,21.1343689,-77.39645386
0,41:11.7,0:32,60,0,41:20.4,1540932080,-0.060741112,0.461712771,-0.090439086,-0.033126831,-0.066619873,-0.989242554,36.45933533,21.1343689,-77.39645386
0,41:11.7,0:32,60,0,41:20.5,1540932080,-0.204833041,0.264358153,-0.160253854,-0.036224365,-0.058929443,-0.977142334,36.89611816,20.65814209,-78.01490784
0,41:11.7,0:32,60,0,41:20.5,1540932080,-0.204833041,0.264358153,-0.160253854,-0.036224365,-0.058929443,-0.977142334,37.09841919,20.54125977,-77.69599915
0,41:11.7,0:32,60,0,41:20.5,1540932080,-0.473100181,-0.103110141,-0.12744584,0.028457642,-0.031814575,-0.99911499,36.84895325,21.29031372,-77.44750977
0,41:11.7,0:32,60,0,41:20.5,1540932081,-0.393012003,-0.328836479,-0.13202701,0.011962891,-0.01776123,-1.031051636,36.51773071,21.82223511,-77.28959656
0,41:11.7,0:32,60,0,41:20.5,1540932081,-0.393012003,-0.328836479,-0.13202701,0.011962891,-0.01776123,-1.031051636,36.0615387,22.37843323,-77.29371643
0,41:11.7,0:32,60,0,41:20.5,1540932081,-0.236066061,-0.634161506,-0.431211853,-0.077774048,-0.028381348,-0.910110474,35.55986023,22.16618347,-77.56309509
0,41:11.7,0:32,60,0,41:20.6,1540932081,-0.227166309,-0.614281009,-0.555409436,-0.090515137,-0.080352783,-0.847930908,35.55986023,22.16618347,-77.56309509
0,41:11.7,0:32,60,0,41:20.6,1540932081,-0.227166309,-0.614281009,-0.555409436,-0.090515137,-0.080352783,-0.847930908,34.98602295,22.04701233,-77.36454773
0,41:11.7,0:32,60,0,41:20.6,1540932081,0.020285564,-0.200416454,-0.509982299,-0.047683716,-0.181121826,-0.842391968,34.35476685,22.24975586,-77.23522949
0,41:11.7,0:32,60,0,41:20.6,1540932081,0.020285564,-0.200416454,-0.509982299,-0.047683716,-0.181121826,-0.842391968,34.02046204,22.47209167,-76.8548584
0,41:11.7,0:32,60,0,41:20.6,1540932081,0.3337074,0.249210359,-0.099363073,-0.000320435,-0.236877441,-0.908584595,34.1242218,22.21836853,-76.93669128
0,41:11.7,0:32,60,0,41:20.6,1540932081,0.381354282,0.284193377,-0.036150548,-0.025238037,-0.212814331,-0.94303894,34.31692505,21.79127502,-77.17630005
0,41:11.7,0:32,60,0,41:20.7,1540932081,0.381354282,0.284193377,-0.036150548,-0.025238037,-0.212814331,-0.94303894,34.31692505,21.79127502,-77.17630005
0,41:11.7,0:32,60,0,41:20.7,1540932081,0.21698824,0.278529632,-0.118574318,-0.033630371,-0.183319092,-0.977371216,34.52511597,21.28382874,-77.26193237
0,41:11.7,0:32,60,0,41:20.7,1540932081,0.12246786,0.326873463,-0.079940905,0.001068115,-0.189025879,-1.027770996,34.83888245,20.83207703,-77.80809021
0,41:11.7,0:32,60,0,41:20.7,1540932081,0.12246786,0.326873463,-0.079940905,0.001068115,-0.189025879,-1.027770996,34.76396179,21.62528992,-77.15815735
0,41:11.7,0:32,60,0,41:20.7,1540932081,-0.008983641,0.319420074,0.206001636,0.094772339,-0.162414551,-1.162078857,34.57846069,21.66192627,-77.16688538
0,41:11.7,0:32,60,0,41:20.7,1540932081,-0.057412959,0.12064173,0.262523768,0.081481934,-0.124786377,-1.218383789,34.87475586,21.6815033,-76.99391174
0,41:11.7,0:32,60,0,41:20.8,1540932081,-0.109892679,-0.094808002,0.170176526,0.036743164,-0.088867188,-1.229660034,34.87475586,21.6815033,-76.99391174
0,41:11.7,0:32,60,0,41:20.8,1540932081,-0.182805502,-0.148614775,0.006285859,-0.011978149,-0.088867188,-1.194671631,35.24725342,20.9079895,-77.31468201
0,41:11.7,0:32,60,0,41:20.8,1540932081,-0.292981276,-0.104087254,-0.045034054,0.001449585,-0.130264282,-1.176269531,34.98571777,21.037323,-77.32411194
0,41:11.7,0:32,60,0,41:20.8,1540932081,-0.432625193,-0.013470269,0.079331308,0.096862793,-0.129440308,-1.164306641,34.94358826,21.97923279,-76.74493408
0,41:11.7,0:32,60,0,41:20.8,1540932081,-0.43836031,-0.008928248,0.309573568,0.16305542,-0.10295105,-1.202438354,34.54678345,22.21376038,-76.44554138
0,41:11.7,0:32,60,0,41:20.8,1540932081,-0.292478471,-0.170745111,0.393936919,0.142608643,-0.035308838,-1.238372803,34.69801331,22.72866821,-76.02784729
0,41:11.7,0:32,60,0,41:20.9,1540932081,-0.100321012,-0.287743371,0.249179999,0.060913086,0.032836914,-1.166809082,34.60731506,22.20141602,-76.59881592
0,41:11.7,0:32,60,0,41:20.9,1540932081,0.009835054,-0.283647429,0.042482213,0.003601074,0.028640747,-1.057601929,34.60731506,22.20141602,-76.59881592
0,41:11.7,0:32,60,0,41:20.9,1540932081,0.016635169,-0.141721982,-0.032304677,0.03237915,-0.005264282,-0.958023071,34.77423096,21.93557739,-76.52159119
0,41:11.7,0:32,60,0,41:20.9,1540932081,0.00955702,0.017038372,0.043924048,0.072097778,-0.056594849,-0.921585083,34.57453918,22.05270386,-76.52809143
0,41:11.7,0:32,60,0,41:20.9,1540932081,0.057519486,0.099356415,0.170375731,0.085647583,-0.092071533,-0.934356689,34.13513184,22.52865601,-76.22201538
0,41:11.7,0:32,60,0,41:20.9,1540932081,0.119848907,0.128743332,0.245357298,0.064788818,-0.101409912,-0.928482056,34.33613586,22.41168213,-76.05934143
0,41:11.7,0:32,60,0,41:21.0,1540932081,0.076686256,0.146283444,0.290365519,0.04675293,-0.105010986,-0.880752563,34.6723938,22.18951416,-76.20541382
0,41:11.7,0:32,60,0,41:21.0,1540932081,-0.09721763,0.168263311,0.350402757,0.053665161,-0.112213135,-0.837280273,34.6723938,22.18951416,-76.20541382
0,41:11.7,0:32,60,0,41:21.0,1540932081,-0.302079433,0.163281602,0.46502814,0.078887939,-0.113342285,-0.845474243,35.18258667,22.01147461,-76.02818298
0,41:11.7,0:32,60,0,41:21.0,1540932081,-0.375723294,0.095418665,0.572048334,0.088821411,-0.098480225,-0.922668457,35.41574097,22.04312134,-76.01431274
0,41:11.7,0:32,60,0,41:21.0,1540932081,-0.313438081,-0.002596848,0.590117083,0.054412842,-0.066131592,-0.990585327,35.31114197,22.99719238,-75.5161438
0,41:11.7,0:32,60,0,41:21.0,1540932081,-0.146754291,-0.121779432,0.51175703,0.007507324,-0.04750061,-1.025268555,35.3303833,23.22645569,-75.50654602
0,41:11.7,0:32,60,0,41:21.1,1540932081,0.03526478,-0.196497613,0.367054705,-0.031433105,-0.048553467,-1.008682251,35.20606995,23.25080872,-75.5904541
0,41:11.7,0:32,60,0,41:21.1,1540932081,0.128601652,-0.166637185,0.249274275,-0.050170898,-0.072509766,-0.943481445,35.20606995,23.25080872,-75.5904541
0,41:11.7,0:32,60,0,41:21.1,1540932081,0.136752257,-0.100493052,0.188314784,-0.038269043,-0.106887817,-0.897399902,35.50071716,22.26054382,-75.5332489
0,41:11.7,0:32,60,0,41:21.1,1540932081,0.169714202,-0.079053007,0.157278304,-0.027450562,-0.139129639,-0.910934448,35.50662231,21.86997986,-75.93777466
0,41:11.7,0:32,60,0,41:21.1,1540932081,0.242627824,-0.075207935,0.102651544,-0.036743164,-0.159042358,-0.932403564,35.36987305,22.67541504,-75.29074097
0,41:11.7,0:32,60,0,41:21.1,1540932081,0.366085048,0.131657363,0.007570302,-0.051376343,-0.19052124,-0.939117432,35.15155029,22.56333923,-75.22874451
0,41:11.7,0:32,60,0,41:21.2,1540932081,0.366085048,0.131657363,0.007570302,-0.051376343,-0.19052124,-0.939117432,35.23197937,22.78034973,-75.29432678
0,41:11.7,0:32,60,0,41:21.2,1540932081,0.390561362,0.275096551,0.05271754,-0.024154663,-0.202056885,-0.974060059,35.56665039,21.54833984,-75.55618286
0,41:11.7,0:32,60,0,41:21.2,1540932081,0.288851512,0.367435537,0.196351405,0.004165649,-0.17741394,-1.077545166,35.56665039,21.54833984,-75.55618286
0,41:11.7,0:32,60,0,41:21.2,1540932081,0.288851512,0.367435537,0.196351405,0.004165649,-0.17741394,-1.077545166,36.17733765,21.11621094,-75.85127258
0,41:11.7,0:32,60,0,41:21.2,1540932081,0.245724015,0.383975099,0.22101201,0.008560181,-0.126037598,-1.129241943,36.54901123,21.04299927,-75.75572205
0,41:11.7,0:32,60,0,41:21.2,1540932081,0.361408803,0.304738333,0.013139238,-0.026107788,-0.045715332,-1.213348389,36.29707336,21.4825592,-75.20666504
0,41:11.7,0:32,60,0,41:21.3,1540932081,0.361408803,0.304738333,0.013139238,-0.026107788,-0.045715332,-1.213348389,36.62045288,21.34101868,-75.1943512
0,41:11.7,0:32,60,0,41:21.3,1540932081,0.350062938,0.018758508,-0.39199654,-0.063293457,-0.111358643,-1.183502197,36.74432373,20.61621094,-75.68293762
0,41:11.7,0:32,60,0,41:21.3,1540932081,0.115588914,-0.155946458,-0.499241771,-0.059692383,-0.183624268,-1.130279541,36.74432373,20.61621094,-75.68293762
0,41:11.7,0:32,60,0,41:21.3,1540932081,0.115588914,-0.155946458,-0.499241771,-0.059692383,-0.183624268,-1.130279541,36.78495789,20.37452698,-75.92391968
0,41:11.7,0:32,60,0,41:21.3,1540932081,-0.414514898,-0.27221075,-0.175857315,0.028488159,-0.173904419,-1.080825806,36.44361877,20.28692627,-75.78961182
0,41:11.7,0:32,60,0,41:21.3,1540932081,-0.414514898,-0.27221075,-0.175857315,0.028488159,-0.173904419,-1.080825806,36.06391907,21.45091248,-75.22053528
0,41:11.7,0:32,60,0,41:21.4,1540932081,-0.296397046,-0.225451766,0.019068766,0.00592041,-0.083374023,-1.13609314,36.04467773,21.22163391,-75.2301178
0,41:11.7,0:32,60,0,41:21.4,1540932081,0.551398982,0.089034535,-0.056778594,-0.121414185,0.011611938,-1.084136963,36.18254089,21.11672974,-75.22651672
0,41:11.7,0:32,60,0,41:21.4,1540932081,0.551398982,0.089034535,-0.056778594,-0.121414185,0.011611938,-1.084136963,36.18254089,21.11672974,-75.22651672
0,41:11.7,0:32,60,0,41:21.4,1540932081,0.759361236,0.611432758,-0.279994371,-0.103942871,-0.082397461,-0.861663818,36.78118896,20.06488037,-75.7795105
0,41:11.7,0:32,60,0,41:21.4,1540932081,0.306569789,0.459962808,-0.264009279,-0.025878906,-0.158203125,-0.827728271,37.16918945,19.21099854,-75.94633484
0,41:11.7,0:32,60,0,41:21.4,1540932081,0.306569789,0.459962808,-0.264009279,-0.025878906,-0.158203125,-0.827728271,37.07876587,20.08459473,-75.4503479
0,41:11.7,0:32,60,0,41:21.5,1540932081,-0.70193576,-0.530556817,-0.066878899,0.10017395,-0.180801392,-0.917617798,36.67411804,20.70947266,-74.98075867
0,41:11.7,0:32,60,0,41:21.5,1540932081,-0.888783408,-0.869684549,-0.013709154,0.097335815,-0.144683838,-0.942306519,36.25334167,21.41465759,-74.7432251
0,41:11.7,0:32,60,0,41:21.5,1540932081,-0.888783408,-0.869684549,-0.013709154,0.097335815,-0.144683838,-0.942306519,35.91201782,21.32705688,-74.6089325
0,41:11.7,0:32,60,0,41:21.5,1540932082,-0.760406527,-0.905386886,-0.049122539,0.04095459,-0.102142334,-0.902755737,35.91201782,21.32705688,-74.6089325
0,41:11.7,0:32,60,0,41:21.5,1540932082,-0.635395082,-0.732481951,-0.040372457,0.029464722,-0.109069824,-0.862792969,35.54670715,21.7101593,-74.53648376
0,41:11.7,0:32,60,0,41:21.5,1540932082,-0.505611786,-0.474651206,0.08734689,0.033493042,-0.126068115,-0.846801758,35.05183411,22.50823975,-74.06532288
0,41:11.7,0:32,60,0,41:21.6,1540932082,-0.283677789,-0.171238595,0.225808896,0.008300781,-0.12562561,-0.875366211,34.74180603,23.2696228,-73.66355896
0,41:11.7,0:32,60,0,41:21.6,1540932082,0.002410693,0.086623309,0.241050167,-0.051528931,-0.108642578,-0.925704956,34.80805969,23.5670929,-73.72691345
0,41:11.7,0:32,60,0,41:21.6,1540932082,0.224298085,0.224359604,0.156568572,-0.086166382,-0.101654053,-0.954818726,35.32168579,22.68896484,-73.65362549
0,41:11.7,0:32,60,0,41:21.6,1540932082,0.308059561,0.244590307,0.035565984,-0.090423584,-0.098678589,-0.9503479,35.32168579,22.68896484,-73.65362549
0,41:11.7,0:32,60,0,41:21.6,1540932082,0.288013415,0.217119268,-0.079045284,-0.092391968,-0.119354248,-0.936843872,35.70362854,22.53489685,-74.02888489
0,41:11.7,0:32,60,0,41:21.6,1540932082,0.240070923,0.14865632,-0.154078516,-0.087310791,-0.157363892,-0.957199097,35.77331543,22.1322937,-74.19619751
0,41:11.7,0:32,60,0,41:21.7,1540932082,0.161404606,0.087665404,-0.130575854,-0.063766479,-0.195800781,-0.989822388,35.63395691,22.93748474,-73.86155701
0,41:11.7,0:32,60,0,41:21.7,1540932082,0.084735927,0.041339451,0.007526626,-0.03364563,-0.231903076,-1.046264648,35.80656433,22.98147583,-73.69441223
0,41:11.7,0:32,60,0,41:21.7,1540932082,0.050593403,0.049450374,0.224929787,-0.008483887,-0.230926514,-1.09677124,36.09454346,22.69096375,-73.92373657
0,41:11.7,0:32,60,0,41:21.7,1540932082,0.087680052,0.113206983,0.420967205,-0.013092041,-0.200531006,-1.139801025,36.09454346,22.69096375,-73.92373657
0,41:11.7,0:32,60,0,41:21.7,1540932082,0.18566627,0.117460318,0.474491949,-0.055404663,-0.148162842,-1.176071167,36.87280273,21.99305725,-74.06350708
0,41:11.7,0:32,60,0,41:21.7,1540932082,0.234677223,0.037353497,0.373720331,-0.096939087,-0.103012085,-1.175170898,37.02357483,21.80754089,-74.21833801
0,41:11.7,0:32,60,0,41:21.8,1540932082,0.185249219,0.005099155,0.173441295,-0.121200562,-0.079284668,-1.124694824,37.10317993,22.72485352,-73.86761475
0,41:11.7,0:32,60,0,41:21.8,1540932082,0.079649556,0.055539159,-0.014942731,-0.118103027,-0.102249146,-1.093978882,37.02909851,22.81776428,-73.63400269
0,41:11.7,0:32,60,0,41:21.8,1540932082,-0.054931692,0.20395979,-0.02222328,-0.039505005,-0.128204346,-1.085159302,37.29437256,22.99803162,-73.76896667
0,41:11.7,0:32,60,0,41:21.8,1540932082,-0.224382241,0.388722982,0.162233648,0.084823608,-0.119689941,-1.093109131,37.86004639,22.49789429,-73.75682068
0,41:11.7,0:32,60,0,41:21.8,1540932082,-0.330547027,0.376743285,0.437455901,0.185745239,-0.143829346,-1.145690918,37.86004639,22.49789429,-73.75682068
0,41:11.7,0:32,60,0,41:21.8,1540932082,-0.432762612,0.109598666,0.679165733,0.237716675,-0.132339478,-1.167648315,38.37335205,22.62940979,-73.80206299
0,41:11.7,0:32,60,0,41:21.9,1540932082,-0.51774568,-0.080764887,0.612557943,0.088226318,-0.019287109,-1.119293213,38.71836853,23.41778564,-72.97337341
0,41:11.7,0:32,60,0,41:21.9,1540932082,-0.488370747,-0.051785434,0.327737392,-0.021697998,0.08795166,-1.051193237,38.49597168,24.00569153,-72.88549805
0,41:11.7,0:32,60,0,41:21.9,1540932082,-0.359547254,-0.085630749,0.097429352,-0.017684937,0.057952881,-1.053359985,38.66711426,24.74993896,-72.38012695
0,41:11.7,0:32,60,0,41:21.9,1540932082,-0.212223579,-0.257399313,-0.03774658,0.017715454,-0.018112183,-1.068099976,38.58882141,23.83276367,-72.57467651
0,41:11.7,0:32,60,0,41:21.9,1540932082,-0.160063172,-0.307795376,-0.002482865,-0.017105103,-0.166061401,-0.905899048,38.58882141,23.83276367,-72.57467651
0,41:11.7,0:32,60,0,41:21.9,1540932082,-0.160063172,-0.307795376,-0.002482865,-0.017105103,-0.166061401,-0.905899048,38.53903198,24.46470642,-72.31965637
0,41:11.7,0:32,60,0,41:22.0,1540932082,-0.258153787,-0.184910465,0.067298347,-0.038955688,-0.161727905,-0.854217529,38.42695618,24.40835571,-72.64009094
0,41:11.7,0:32,60,0,41:22.0,1540932082,-0.346250356,0.001500691,0.185344294,-0.063659668,-0.078674316,-0.932815552,38.3081665,25.44293213,-72.13969421
0,41:11.7,0:32,60,0,41:22.0,1540932082,-0.346250356,0.001500691,0.185344294,-0.063659668,-0.078674316,-0.932815552,38.45433044,25.64810181,-71.73381042
0,41:11.7,0:32,60,0,41:22.0,1540932082,-0.27410985,0.045188517,0.176813923,-0.077560425,-0.021621704,-0.976760864,38.74230957,25.35757446,-71.96311951
0,41:11.7,0:32,60,0,41:22.0,1540932082,0.073002838,-0.047843955,0.158410947,-0.071212769,-0.002975464,-1.015945435,39.32022095,24.77674866,-72.18748474
0,41:11.7,0:32,60,0,41:22.0,1540932082,0.073002838,-0.047843955,0.158410947,-0.071212769,-0.002975464,-1.015945435,39.32022095,24.77674866,-72.18748474
0,41:11.7,0:32,60,0,41:22.1,1540932082,0.279112864,-0.111384049,0.13579485,-0.070968628,-0.021072388,-0.932403564,39.20698547,24.41105652,-72.0511322
0,41:11.7,0:32,60,0,41:22.1,1540932082,0.272851506,-0.127153958,0.037257624,-0.095932007,-0.024581909,-0.893997192,39.1126709,25.28425598,-72.02375793
0,41:11.7,0:32,60,0,41:22.1,1540932082,0.272851506,-0.127153958,0.037257624,-0.095932007,-0.024581909,-0.893997192,38.61993408,25.38214111,-71.81277466
0,41:11.7,0:32,60,0,41:22.1,1540932082,0.239583831,-0.155757373,-0.303303688,-0.121688843,-0.042312622,-0.893371582,38.74230957,25.35757446,-71.96311951
0,41:11.7,0:32,60,0,41:22.1,1540932082,0.239583831,-0.155757373,-0.303303688,-0.121688843,-0.042312622,-0.893371582,38.86109924,24.32299805,-72.46353149
0,41:11.7,0:32,60,0,41:22.1,1540932082,0.304560434,-0.120118153,-0.445699982,-0.112213135,-0.068405151,-0.908554077,38.86109924,24.32299805,-72.46353149
0,41:11.7,0:32,60,0,41:22.2,1540932082,0.30088101,0.043283026,-0.456206153,-0.039703369,-0.134567261,-0.908798218,38.85916138,24.32281494,-72.6978302
0,41:11.7,0:32,60,0,41:22.2,1540932082,0.270625636,0.220370455,-0.309272365,-0.009033203,-0.156082153,-0.938949585,38.48094177,24.78651428,-72.46694946
0,41:11.7,0:32,60,0,41:22.2,1540932082,0.245019609,0.330392031,-0.17206018,-0.005599976,-0.154510498,-0.997055054,38.24913025,24.75500488,-72.32463074
0,41:11.7,0:32,60,0,41:22.2,1540932082,0.286928443,0.428137766,-0.102343683,-0.017333984,-0.110824585,-1.051544189,38.80937195,24.95472717,-72.44282532
0,41:11.7,0:32,60,0,41:22.2,1540932082,0.424298553,0.447562597,-0.150541572,-0.050231934,-0.079452515,-1.112121582,39.48991394,23.81077576,-72.2922821
0,41:11.7,0:32,60,0,41:22.3,1540932082,0.507907963,0.346577393,-0.252418137,-0.056365967,-0.072875977,-1.130477905,39.48991394,23.81077576,-72.2922821
0,41:11.7,0:32,60,0,41:22.3,1540932082,0.40089709,0.157691094,-0.365065856,-0.063552856,-0.097106934,-1.099090576,39.73155212,23.45210266,-72.37054443
0,41:11.7,0:32,60,0,41:22.3,1540932082,0.086102395,-0.159852782,-0.533507066,-0.088302612,-0.125991821,-1.080917358,39.6131134,23.08590698,-72.85897827
0,41:11.7,0:32,60,0,41:22.3,1540932082,-0.253708971,-0.428805421,-0.621567684,-0.074707031,-0.135452271,-1.073684692,38.49987793,24.006073,-72.41691589
0,41:11.7,0:32,60,0,41:22.3,1540932082,-0.419585557,-0.45865706,-0.602289061,-0.060821533,-0.137390137,-1.084960938,38.47589111,24.47677612,-72.47875977
0,41:11.7,0:32,60,0,41:22.3,1540932082,-0.425511623,-0.171346187,-0.48842188,-0.043609619,-0.114059448,-1.075912476,38.15266418,24.30906677,-71.87814331
0,41:11.7,0:32,60,0,41:22.3,1540932082,-0.336144459,0.295181846,-0.250136606,0.001998901,-0.083740234,-1.065841675,38.89208984,24.16227722,-72.15560913
0,41:11.7,0:32,60,0,41:22.4,1540932082,-0.180133553,0.556778833,-0.045316882,0.016586304,-0.05519104,-1.114974976,38.89208984,24.16227722,-72.15560913
0,41:11.7,0:32,60,0,41:22.4,1540932082,-0.035369442,0.606985279,0.035024829,0.004348755,-0.013824463,-1.134338379,39.00158691,24.21835327,-72.14756775
0,41:11.7,0:32,60,0,41:22.4,1540932082,0.003683418,0.508064024,0.064877534,-0.003768921,-0.006317139,-1.116073608,39.10957336,24.97468567,-71.80130005
0,41:11.7,0:32,60,0,41:22.4,1540932082,-0.143238386,0.368736491,0.096866892,-0.006622314,-0.007385254,-1.05960083,38.97624207,25.08003235,-71.25819397
0,41:11.7,0:32,60,0,41:22.4,1540932082,-0.378687659,0.226073614,0.093535011,-0.003677368,0.01852417,-1.028244019,39.78192139,25.23074341,-71.59906006
0,41:11.7,0:32,60,0,41:22.4,1540932082,-0.479890976,-0.006317018,0.026879285,-0.00920105,0.043502808,-1.087051392,39.78192139,25.23074341,-71.59906006
0,41:11.7,0:32,60,0,41:22.5,1540932082,-0.36244717,-0.328086799,-0.122395688,-0.030319214,0.05406189,-1.151351929,40.02682495,24.87239075,-71.28684998
0,41:11.7,0:32,60,0,41:22.5,1540932082,-0.099243763,-0.533034622,-0.352947141,-0.073486328,0.048110962,-1.122970581,39.65074158,24.63591003,-71.31611633
0,41:11.7,0:32,60,0,41:22.5,1540932082,0.128717766,-0.547580808,-0.50829492,-0.082260132,-0.011749268,-1.005310059,39.16680908,25.35316467,-71.2376709
0,41:11.7,0:32,60,0,41:22.5,1540932083,0.233264416,-0.43053035,-0.547797589,-0.066253662,-0.084747314,-0.885864258,38.20777893,25.38775635,-71.05436707
0,41:11.7,0:32,60,0,41:22.5,1540932083,0.248390638,-0.264428993,-0.467281707,-0.034515381,-0.149047852,-0.817932129,37.94299316,25.51676941,-71.45428467
0,41:11.7,0:32,60,0,41:22.5,1540932083,0.23692573,-0.104866229,-0.310736304,-0.015380859,-0.202713013,-0.806869507,38.17515564,24.53866577,-71.47805786
0,41:11.7,0:32,60,0,41:22.6,1540932083,0.223526035,-0.030839139,-0.127524404,-0.005935669,-0.235092163,-0.840942383,38.17515564,24.53866577,-71.47805786
0,41:11.7,0:32,60,0,41:22.6,1540932083,0.210982546,0.011997274,0.009601761,-0.008926392,-0.231964111,-0.872756958,38.3432312,24.5821991,-71.85758972
0,41:11.7,0:32,60,0,41:22.6,1540932083,0.245093911,0.061235395,0.056772203,-0.020019531,-0.197296143,-0.915664673,38.32087708,24.04335022,-71.64468384
0,41:11.7,0:32,60,0,41:22.6,1540932083,0.312753383,0.075792766,0.040710945,-0.020736694,-0.165222168,-0.966918945,37.67852783,24.63615417,-71.73561096
0,41:11.7,0:32,60,0,41:22.6,1540932083,0.348567573,0.065821624,0.013918479,-0.007141113,-0.144134521,-0.992645264,37.80220032,24.61174011,-71.72979736
0,41:11.7,0:32,60,0,41:22.6,1540932083,0.393551293,0.025425998,-6.34E-05,-0.00050354,-0.140029907,-1.029602051,38.12901306,23.77011108,-71.82142639
0,41:11.7,0:32,60,0,41:22.7,1540932083,0.424725458,-0.021399565,0.004154798,0.004714966,-0.139144897,-1.052398682,38.47183228,23.15744019,-72.29393005
0,41:11.7,0:32,60,0,41:22.7,1540932083,0.409132916,-0.099275721,0.04154265,0.011032104,-0.148101807,-1.062133789,38.47183228,23.15744019,-72.29393005
0,41:11.7,0:32,60,0,41:22.7,1540932083,0.285166496,-0.152324825,0.081128942,0.002807617,-0.15763855,-1.040863037,38.21307373,22.5866394,-72.48536682
0,41:11.7,0:32,60,0,41:22.7,1540932083,-0.107756025,-0.419345606,0.178342577,-0.004104614,-0.164154053,-1.041503906,37.62228394,23.24807739,-72.10258484
0,41:11.7,0:32,60,0,41:22.7,1540932083,-0.107756025,-0.419345606,0.178342577,-0.004104614,-0.164154053,-1.041503906,37.0065155,23.37045288,-71.81930542
0,41:11.7,0:32,60,0,41:22.7,1540932083,-0.287020589,-0.517355793,0.233949647,-0.023513794,-0.155761719,-1.043670654,37.14749146,23.57511902,-72.03817749
0,41:11.7,0:32,60,0,41:22.8,1540932083,-0.287238968,-0.336446462,0.164566844,-0.095321655,-0.140655518,-1.08757019,37.44850159,22.89471436,-71.81297302
0,41:11.7,0:32,60,0,41:22.8,1540932083,-0.287238968,-0.336446462,0.164566844,-0.095321655,-0.140655518,-1.08757019,37.44850159,22.89471436,-71.81297302
0,41:11.7,0:32,60,0,41:22.8,1540932083,-0.248134975,-0.120277143,0.109139271,-0.054992676,-0.107498169,-1.071487427,37.31323242,22.99989319,-71.50418091
0,41:11.7,0:32,60,0,41:22.8,1540932083,-0.287155345,0.276934399,0.408409069,0.087539673,-0.089614868,-1.085998535,36.78231812,23.6489563,-71.35276794
0,41:11.7,0:32,60,0,41:22.8,1540932083,-0.287155345,0.276934399,0.408409069,0.087539673,-0.089614868,-1.085998535,36.48583984,24.32975769,-71.03131104
0,41:11.7,0:32,60,0,41:22.8,1540932083,-0.315987259,0.175811775,0.610684143,0.023178101,-0.032775879,-1.147293091,37.04872131,24.5297699,-70.83712769
0,41:11.7,0:32,60,0,41:22.9,1540932083,-0.315987259,0.175811775,0.610684143,0.023178101,-0.032775879,-1.147293091,37.82829285,23.83200073,-70.82069397
0,41:11.7,0:32,60,0,41:22.9,1540932083,-0.332135603,0.124345122,0.536735084,-0.000946045,0.030960083,-1.129760742,37.82829285,23.83200073,-70.82069397
0,41:11.7,0:32,60,0,41:22.9,1540932083,-0.111764083,-0.052907157,0.245188986,-0.046920776,0.063583374,-1.13999939,38.01689148,24.10491943,-71.0344696
0,41:11.7,0:32,60,0,41:22.9,1540932083,-0.111764083,-0.052907157,0.245188986,-0.046920776,0.063583374,-1.13999939,37.60934448,23.71986389,-70.83679199
0,41:11.7,0:32,60,0,41:22.9,1540932083,-0.00979777,-0.116087991,0.112299644,-0.069366455,0.038818359,-1.085464478,36.847229,24.33744812,-70.46495056
0,41:11.7,0:32,60,0,41:22.9,1540932083,-0.008803079,-0.021834725,0.071722923,-0.068618774,-0.035461426,-0.950866699,36.81228638,24.88894653,-70.13407898
0,41:11.7,0:32,60,0,41:23.0,1540932083,-0.008803079,-0.021834725,0.071722923,-0.068618774,-0.035461426,-0.950866699,37.26083374,24.02270508,-70.4541626
0,41:11.7,0:32,60,0,41:23.0,1540932083,0.064268202,0.117055784,0.055813731,-0.046264648,-0.033554077,-0.938369751,37.26083374,24.02270508,-70.4541626
0,41:11.7,0:32,60,0,41:23.0,1540932083,0.223945482,0.04325666,0.005353753,-0.023025513,-0.049560547,-0.959686279,37.55711365,24.04226685,-70.28123474
0,41:11.7,0:32,60,0,41:23.0,1540932083,0.223945482,0.04325666,0.005353753,-0.023025513,-0.049560547,-0.959686279,37.31060791,23.39079285,-70.70918274
0,41:11.7,0:32,60,0,41:23.0,1540932083,0.421058818,-0.180416647,0.01788073,-0.00390625,-0.124923706,-0.883407593,36.43771362,23.95219421,-70.50157166
0,41:11.7,0:32,60,0,41:23.0,1540932083,0.388275837,-0.18027763,0.061794126,-0.012176514,-0.15222168,-0.817886353,36.09509277,23.86447144,-70.52346802
0,41:11.7,0:32,60,0,41:23.1,1540932083,0.388275837,-0.18027763,0.061794126,-0.012176514,-0.15222168,-0.817886353,36.3367157,23.50579834,-70.60174561
0,41:11.7,0:32,60,0,41:23.1,1540932083,0.28967363,0.115554027,0.160702064,-0.037490845,-0.170196533,-0.776168823,36.3367157,23.50579834,-70.60174561
0,41:11.7,0:32,60,0,41:23.1,1540932083,0.323584725,0.253490325,0.206911105,-0.041259766,-0.167770386,-0.82762146,36.80580139,22.86897278,-70.75605774
0,41:11.7,0:32,60,0,41:23.1,1540932083,0.391348859,0.28630553,0.222998196,-0.056747437,-0.166595459,-0.892883301,37.04042053,22.2003479,-71.08042908
0,41:11.7,0:32,60,0,41:23.1,1540932083,0.394133194,0.234575756,0.169390627,-0.084411621,-0.161117554,-0.921813965,36.58294678,22.75643921,-71.24073792
0,41:11.7,0:32,60,0,41:23.1,1540932083,0.294523779,0.161286362,0.072946645,-0.108123779,-0.161880493,-0.930953979,36.19462585,22.60063171,-71.03346252
0,41:11.7,0:32,60,0,41:23.2,1540932083,0.14349831,0.124012227,0.019393938,-0.112823486,-0.174316406,-0.952651978,36.43087769,22.94186401,-71.24209595
0,41:11.7,0:32,60,0,41:23.2,1540932083,0.000454868,0.170654297,0.059107795,-0.098419189,-0.182678223,-0.989501953,37.10290527,22.18818665,-70.99942017
0,41:11.7,0:32,60,0,41:23.2,1540932083,-0.103402023,0.240621398,0.122399949,-0.080978394,-0.162536621,-1.049316406,37.10290527,22.18818665,-70.99942017
0,41:11.7,0:32,60,0,41:23.2,1540932083,-0.150929861,0.236678322,0.140611177,-0.07510376,-0.116363525,-1.115814209,37.28079224,21.84155273,-71.31489563
0,41:11.7,0:32,60,0,41:23.2,1540932083,-0.080363815,0.206101504,0.044178913,-0.091430664,-0.068145752,-1.183303833,36.91545105,22.22463989,-71.2424469
0,41:11.7,0:32,60,0,41:23.2,1540932083,0.073370887,0.136234006,-0.163691463,-0.115875244,-0.044189453,-1.226959229,35.99493408,22.71775818,-71.03996277
0,41:11.7,0:32,60,0,41:23.3,1540932083,0.19709496,0.001997903,-0.431602273,-0.133453369,-0.062088013,-1.244354248,35.95300293,22.95930481,-70.9552002
0,41:11.7,0:32,60,0,41:23.3,1540932083,0.133166044,-0.213076323,-0.590339723,-0.126296997,-0.142501831,-1.209136963,36.09429932,22.15429688,-71.05554199
0,41:11.7,0:32,60,0,41:23.3,1540932083,-0.159360098,-0.366075993,-0.576536825,-0.091186523,-0.206253052,-1.131072998,36.09429932,22.15429688,-71.05554199
0,41:11.7,0:32,60,0,41:23.3,1540932083,-0.456142503,-0.368393476,-0.36657933,-0.033096313,-0.219680786,-1.089233398,36.07945251,22.23474121,-71.13140869
0,41:11.7,0:32,60,0,41:23.3,1540932083,-0.517169905,-0.300613096,-0.129820581,-0.001541138,-0.171279907,-1.12701416,35.29042053,22.31303406,-71.09336853
0,41:11.7,0:32,60,0,41:23.3,1540932083,-0.329389351,-0.274584958,-0.057015083,-0.022354126,-0.081939697,-1.179901123,34.19645691,23.46250916,-70.64172363
0,41:11.7,0:32,60,0,41:23.4,1540932083,-0.040494696,-0.294359462,-0.133140211,-0.055252075,-0.029006958,-1.155944824,33.86737061,23.29421997,-70.74394226
0,41:11.7,0:32,60,0,41:23.4,1540932083,0.194224338,-0.253984075,-0.244516538,-0.085998535,-0.028793335,-1.066177368,33.88026428,23.21360779,-70.90237427
0,41:11.7,0:32,60,0,41:23.4,1540932083,0.292940796,-0.198469417,-0.299085774,-0.087005615,-0.067504883,-0.968734741,33.88026428,23.21360779,-70.90237427
0,41:11.7,0:32,60,0,41:23.4,1540932083,0.20497259,-0.129586489,-0.273278944,-0.076873779,-0.117477417,-0.877868652,34.30171204,22.50848389,-71.06181335
0,41:11.7,0:32,60,0,41:23.4,1540932083,0.01173948,0.081753453,-0.186231926,-0.08140564,-0.154434204,-0.821838379,34.01586914,22.09880066,-71.09262085
0,41:11.7,0:32,60,0,41:23.4,1540932083,-0.220185632,-0.003956392,-0.104896323,-0.077560425,-0.154998779,-0.823806763,33.29243469,22.47453308,-71.19602966
0,41:11.7,0:32,60,0,41:23.5,1540932083,-0.55250952,0.135758099,0.10524493,-0.037277222,-0.136444092,-0.77633667,32.79818726,23.27268982,-70.64680481
0,41:11.7,0:32,60,0,41:23.5,1540932083,-0.678755606,0.081362234,0.216577847,-0.044067383,-0.095428467,-0.898574829,33.10266113,23.91156006,-70.68450928
0,41:11.7,0:32,60,0,41:23.5,1540932083,-0.600397684,0.114165721,0.210174276,-0.071212769,-0.026016235,-0.956924438,33.99868774,23.57980347,-70.41394043
0,41:11.7,0:32,60,0,41:23.5,1540932084,-0.364740151,0.143694585,0.104138653,-0.109466553,0.004043579,-1.011779785,33.99868774,23.57980347,-70.41394043
0,41:11.7,0:32,60,0,41:23.5,1540932084,-0.085725025,0.173038626,-0.059734171,-0.128448486,0.019195557,-1.026367188,34.23709106,23.22084045,-70.88270569
0,41:11.7,0:32,60,0,41:23.5,1540932084,0.153597017,0.142013598,-0.178695712,-0.11656189,-0.006973267,-1.017745972,33.33009338,23.63337708,-70.76054382
0,41:11.7,0:32,60,0,41:23.6,1540932084,0.290117046,0.09082924,-0.148807588,-0.071609497,-0.072341919,-0.999725342,32.66539001,23.68736267,-70.63859558
0,41:11.7,0:32,60,0,41:23.6,1540932084,0.389715809,0.059099806,-0.026792466,-0.037750244,-0.107086182,-0.974227905,32.68267822,23.91641235,-70.86328125
0,41:11.7,0:32,60,0,41:23.6,1540932084,0.459232303,0.085946067,0.125286283,-0.031967163,-0.125411987,-0.931747437,33.45588684,22.9087677,-71.01487732
0,41:11.7,0:32,60,0,41:23.6,1540932084,0.487816277,0.123086778,0.235623976,-0.033966064,-0.117111206,-0.898712158,33.45588684,22.9087677,-71.01487732
0,41:11.7,0:32,60,0,41:23.6,1540932084,0.364514049,-0.119646507,0.103638245,-0.075836182,-0.105743408,-0.889663696,34.05046082,22.55693054,-71.54203796
0,41:11.7,0:32,60,0,41:23.6,1540932084,0.364514049,-0.119646507,0.103638245,-0.075836182,-0.105743408,-0.889663696,33.77311707,21.75694275,-71.66496277
0,41:11.7,0:32,60,0,41:23.7,1540932084,0.212772723,-0.240047753,0.012503009,-0.081726074,-0.140625,-0.878234863,32.66575623,22.28656006,-71.62742615
0,41:11.7,0:32,60,0,41:23.7,1540932084,-0.276506961,0.00536334,0.133930904,-0.032455444,-0.179992676,-0.876525879,32.23861694,22.68186951,-71.55787659
0,41:11.7,0:32,60,0,41:23.7,1540932084,-0.276506961,0.00536334,0.133930904,-0.032455444,-0.179992676,-0.876525879,32.98326111,22.5355835,-71.21057129
0,41:11.7,0:32,60,0,41:23.7,1540932084,-0.43638531,0.192309259,0.290545815,0.001495361,-0.160751343,-0.981048584,32.98326111,22.5355835,-71.21057129
0,41:11.7,0:32,60,0,41:23.7,1540932084,-0.446386279,0.251842361,0.303472,-0.027877808,-0.050201416,-1.186569214,33.77096558,22.45715332,-71.40484619
0,41:11.7,0:32,60,0,41:23.7,1540932084,-0.446386279,0.251842361,0.303472,-0.027877808,-0.050201416,-1.186569214,33.845047,22.36425781,-71.63842773
0,41:11.7,0:32,60,0,41:23.8,1540932084,-0.222539333,0.053854177,-0.220477514,-0.076248169,0.003890991,-1.249435425,33.38951111,22.92051697,-71.56445313
0,41:11.7,0:32,60,0,41:23.8,1540932084,-0.125654864,0.237204829,-0.322006536,0.017379761,-0.092102051,-1.166213989,33.01832581,23.69418335,-71.08747864
0,41:11.7,0:32,60,0,41:23.8,1540932084,-0.037578268,0.430603587,-0.210419554,0.062072754,-0.094192505,-1.156448364,33.01832581,23.69418335,-71.08747864
0,41:11.7,0:32,60,0,41:23.8,1540932084,0.118263793,0.555009163,-0.048603489,0.089279175,-0.106216431,-1.174514771,33.802948,23.30618286,-71.05924988
0,41:11.7,0:32,60,0,41:23.8,1540932084,0.240862681,0.608574653,0.056377522,0.084991455,-0.09538269,-1.142974854,34.33563232,22.96656799,-71.58932495
0,41:11.7,0:32,60,0,41:23.9,1540932084,0.256744175,0.623423374,0.091730453,0.054534912,-0.107681274,-1.090454102,34.16059875,22.61308289,-71.45588684
0,41:11.7,0:32,60,0,41:23.9,1540932084,0.10734723,0.558699239,0.136662774,0.062347412,-0.117156982,-1.034179688,33.8372345,22.75463867,-71.46821594
0,41:11.7,0:32,60,0,41:23.9,1540932084,-0.151667557,0.395403522,0.210413162,0.096679688,-0.11114502,-1.007324219,34.1398468,23.08407593,-71.12724304
0,41:11.7,0:32,60,0,41:23.9,1540932084,-0.358698504,0.150569535,0.263704081,0.107940674,-0.096801758,-1.034072876,35.1209259,22.57861328,-71.48300171
0,41:11.7,0:32,60,0,41:23.9,1540932084,-0.471279112,-0.033480729,0.307409484,0.103134155,-0.067245483,-1.042388916,35.1209259,22.57861328,-71.48300171
0,41:11.7,0:32,60,0,41:23.9,1540932084,-0.470201064,-0.137385556,0.322273118,0.067886353,-0.048355103,-1.040405273,35.67025757,22.85917664,-71.20851135
0,41:11.7,0:32,60,0,41:24.0,1540932084,-0.447409732,-0.191479152,0.270799541,0.032562256,-0.028945923,-1.019302368,35.368927,22.52984619,-71.39326477
0,41:11.7,0:32,60,0,41:24.0,1540932084,-0.366104489,-0.200548281,0.17974553,0.003814697,-0.019821167,-1.0050354,34.73356628,23.43257141,-71.2381134
0,41:11.7,0:32,60,0,41:24.0,1540932084,-0.190484727,-0.163957779,0.074803934,-0.015640259,-0.021820068,-1.004882813,34.1222229,23.86465454,-71.02108765
0,41:11.7,0:32,60,0,41:24.0,1540932084,0.050969441,-0.079331041,-0.029023396,-0.017456055,-0.03276062,-0.995239258,34.52734375,23.94021606,-70.91818237
0,41:11.7,0:32,60,0,41:24.0,1540932084,0.282567783,-0.020778249,-0.08040829,0.000778198,-0.062515259,-0.983352661,35.42602539,23.21757507,-71.44261169
0,41:11.7,0:32,60,0,41:24.0,1540932084,0.3997759,-0.001391235,-0.070774838,0.026657104,-0.10369873,-0.9400177,35.42602539,23.21757507,-71.44261169
0,41:11.7,0:32,60,0,41:24.1,1540932084,0.398593722,-0.005860552,-0.032229043,0.038360596,-0.139709473,-0.89440918,35.02874756,22.75163269,-71.71575928
0,41:11.7,0:32,60,0,41:24.1,1540932084,0.328577886,-0.037846715,0.020220583,0.04510498,-0.16708374,-0.86946106,34.5740509,22.60758972,-72.05809021
0,41:11.7,0:32,60,0,41:24.1,1540932084,0.252418137,-0.05350264,0.060912353,0.039810181,-0.180725098,-0.867340088,33.98666382,22.56895447,-71.77923584
0,41:11.7,0:32,60,0,41:24.1,1540932084,0.167733342,-0.077742466,0.104808172,0.039260864,-0.190170288,-0.878479004,34.47027588,22.86132813,-71.97622681
0,41:11.7,0:32,60,0,41:24.1,1540932084,0.09274858,-0.082563586,0.138016992,0.033309937,-0.178970337,-0.903594971,35.32585144,22.07087708,-71.95910645
0,41:11.7,0:32,60,0,41:24.1,1540932084,0.087157539,0.000658333,0.167034263,0.026443481,-0.158813477,-0.946258545,35.32585144,22.07087708,-71.95910645
0,41:11.7,0:32,60,0,41:24.2,1540932084,0.194430467,0.194262688,0.181168457,0.011322021,-0.132446289,-1.008682251,35.65382385,21.53863525,-72.50749207
0,41:11.7,0:32,60,0,41:24.2,1540932084,0.388060654,0.363474085,0.137425238,-0.000259399,-0.106704712,-1.074935913,35.38659668,21.35813904,-72.60681152
0,41:11.7,0:32,60,0,41:24.2,1540932084,0.502965402,0.453517692,0.064690047,0.012969971,-0.087799072,-1.106323242,34.93318176,21.21420288,-72.79295349
0,41:11.7,0:32,60,0,41:24.2,1540932084,0.449115486,0.432633715,0.006850716,0.034912109,-0.086502075,-1.112213135,35.38789368,21.35826111,-72.45062256
0,41:11.7,0:32,60,0,41:24.2,1540932084,0.334784116,0.263059596,-0.049015746,0.057144165,-0.087875366,-1.139816284,36.12225342,20.90171814,-72.73989868
0,41:11.7,0:32,60,0,41:24.2,1540932084,0.248613278,0.054397196,-0.134921333,0.061004639,-0.085067749,-1.160140991,36.12225342,20.90171814,-72.73989868
0,41:11.7,0:32,60,0,41:24.3,1540932084,0.194331664,-0.122217256,-0.197236107,0.057769775,-0.082717896,-1.156494141,36.74975586,20.38935852,-72.72483826
0,41:11.7,0:32,60,0,41:24.3,1540932084,0.204951551,-0.245254233,-0.289484545,0.019821167,-0.089431763,-1.151123047,36.31513977,19.77424622,-73.47392273
0,41:11.7,0:32,60,0,41:24.3,1540932084,0.245876081,-0.301273827,-0.443767592,-0.036621094,-0.113052368,-1.120620728,34.85032654,20.29656982,-73.53416443
0,41:11.7,0:32,60,0,41:24.3,1540932084,0.189194692,-0.288583598,-0.505848274,-0.048416138,-0.158813477,-1.052581787,34.51029968,20.20913696,-73.2436676
0,41:11.7,0:32,60,0,41:24.3,1540932084,0.075930185,-0.21200227,-0.451112591,-0.040405273,-0.196807861,-1.005249023,34.70936584,20.0919342,-73.3152771
0,41:11.7,0:32,60,0,41:24.3,1540932084,-0.060176788,-0.076103024,-0.298849818,-0.018356323,-0.194274902,-0.974334717,34.70936584,20.0919342,-73.3152771
0,41:11.7,0:32,60,0,41:24.4,1540932084,-0.150010804,0.045321143,-0.154112072,-0.009094238,-0.147399902,-0.980377197,35.82046509,19.87193298,-73.49719238
0,41:11.7,0:32,60,0,41:24.4,1540932084,0.011796206,0.083980388,-0.202292119,-0.055007935,-0.023117065,-1.011810303,35.59190369,19.44960022,-74.07177734
0,41:11.7,0:32,60,0,41:24.4,1540932084,0.073533606,0.00388422,-0.336263502,-0.07333374,-0.005355835,-0.976867676,34.8343811,19.67649841,-74.26065063
0,41:11.7,0:32,60,0,41:24.4,1540932084,0.039427834,-0.06660486,-0.478766855,-0.082626343,-0.013549805,-0.915405273,34.08724976,19.90441895,-73.19996643
0,41:11.7,0:32,60,0,41:24.4,1540932084,-0.048998968,-0.066572103,-0.545138955,-0.075515747,-0.061141968,-0.868011475,34.23002625,20.41850281,-73.79756165
0,41:11.7,0:32,60,0,41:24.5,1540932084,-0.147298907,0.032553682,-0.483953894,-0.052383423,-0.112609863,-0.850875854,35.09916687,19.54748535,-73.86074829
0,41:11.7,0:32,60,0,41:24.5,1540932084,-0.147298907,0.032553682,-0.483953894,-0.052383423,-0.112609863,-0.850875854,35.09916687,19.54748535,-73.86074829
0,41:11.7,0:32,60,0,41:24.5,1540932084,-0.269910311,0.152000718,-0.307084844,-0.002349854,-0.150878906,-0.858535767,35.68214417,19.27639771,-74.07330322
0,41:11.7,0:32,60,0,41:24.5,1540932084,-0.384873915,0.201932858,-0.075689435,0.041992188,-0.158126831,-0.899002075,35.08056641,19.31828308,-73.79225159
0,41:11.7,0:32,60,0,41:24.5,1540932085,-0.506813937,0.166788985,0.079571525,0.058425903,-0.12487793,-0.93649292,34.3691864,20.31370544,-73.63774109
0,41:11.7,0:32,60,0,41:24.5,1540932085,-0.528327218,-0.110738233,0.019266106,0.001831055,-0.067565918,-1.026977539,34.45794678,20.84077454,-73.30107117
0,41:11.7,0:32,60,0,41:24.5,1540932085,-0.528327218,-0.110738233,0.019266106,0.001831055,-0.067565918,-1.026977539,35.15608215,20.93560791,-73.41567993
0,41:11.7,0:32,60,0,41:24.6,1540932085,-0.434861982,-0.179271221,-0.10720262,-0.015045166,-0.0574646,-1.027450562,35.15608215,20.93560791,-73.41567993
0,41:11.7,0:32,60,0,41:24.6,1540932085,-0.207691145,-0.161447217,-0.241093044,-0.009689331,-0.100875854,-1.026794434,35.88130188,20.86930847,-73.69094849
0,41:11.7,0:32,60,0,41:24.6,1540932085,-0.207691145,-0.161447217,-0.241093044,-0.009689331,-0.100875854,-1.026794434,35.38223267,20.65730286,-73.64793396
0,41:11.7,0:32,60,0,41:24.6,1540932085,-0.091671597,-0.155045244,-0.227191876,0.006622314,-0.131515503,-1.043426514,34.33166504,20.86494446,-73.61927795
0,41:11.7,0:32,60,0,41:24.6,1540932085,0.132935414,-0.030884147,-0.169266258,0.014953613,-0.152328491,-1.037902832,34.12037659,21.06283569,-73.31117249
0,41:11.7,0:32,60,0,41:24.7,1540932085,0.265414895,0.037105823,-0.17885204,0.019561768,-0.149703979,-1.046585083,34.41470337,21.0821991,-73.3724823
0,41:11.7,0:32,60,0,41:24.7,1540932085,0.369245687,0.090163982,-0.172386417,0.027679443,-0.159790039,-1.041976929,35.64309692,20.52790833,-73.71661377
0,41:11.7,0:32,60,0,41:24.7,1540932085,0.421153893,0.116680278,-0.165941035,0.025512695,-0.178192139,-1.037322998,35.64309692,20.52790833,-73.71661377
0,41:11.7,0:32,60,0,41:24.7,1540932085,0.373960814,0.15691718,-0.106982643,0.025512695,-0.178192139,-1.037322998,35.63760376,19.51766968,-74.30091858
0,41:11.7,0:32,60,0,41:24.7,1540932085,0.304814233,0.23384392,0.025915753,0.047927856,-0.216827393,-1.036727905,35.01794434,19.6396637,-74.48622131
0,41:11.7,0:32,60,0,41:24.7,1540932085,0.293814845,0.332819236,0.185598892,0.069534302,-0.196670532,-1.072601318,34.6025238,19.64497375,-74.11831665
0,41:11.7,0:32,60,0,41:24.7,1540932085,0.293814845,0.332819236,0.185598892,0.069534302,-0.196670532,-1.072601318,35.4881134,19.70335388,-73.98988342
0,41:11.7,0:32,60,0,41:24.8,1540932085,0.285033071,0.223031219,0.342882257,0.045883179,-0.153793335,-1.136962891,36.76223755,19.21714783,-74.56317139
0,41:11.7,0:32,60,0,41:24.8,1540932085,0.13398177,0.066891682,0.261340525,0.020065308,-0.12512207,-1.090164185,36.76223755,19.21714783,-74.56317139
0,41:11.7,0:32,60,0,41:24.8,1540932085,-0.061808773,-0.032471923,0.154178918,0.007415771,-0.117202759,-1.055709839,37.0521698,18.92683411,-74.55821228
0,41:11.7,0:32,60,0,41:24.8,1540932085,-0.191816042,-0.072196699,0.122035362,0.019287109,-0.139526367,-1.067718506,36.62779236,18.62199402,-74.67070007
0,41:11.7,0:32,60,0,41:24.8,1540932085,-0.27141766,-0.114894096,0.171261498,0.079086304,-0.115661621,-1.092529297,35.99720764,18.82478333,-74.46327209
0,41:11.7,0:32,60,0,41:24.8,1540932085,-0.168997545,-0.090098468,0.216243621,0.108596802,-0.070022583,-1.127182007,35.99880981,19.83460999,-74.34753418
0,41:11.7,0:32,60,0,41:24.9,1540932085,0.130199549,-0.011781026,0.199134408,0.086517334,-0.059341431,-1.143371582,36.83302307,19.51507568,-74.07987976
0,41:11.7,0:32,60,0,41:24.9,1540932085,0.407240208,0.059280634,0.156320898,0.081771851,-0.060012817,-1.097122192,36.83302307,19.51507568,-74.07987976
0,41:11.7,0:32,60,0,41:24.9,1540932085,0.434748265,0.074069168,0.178820615,0.082565308,-0.104888916,-0.991943359,37.94625854,18.59487915,-74.52194214
0,41:11.7,0:32,60,0,41:24.9,1540932085,0.255065319,0.04523459,0.247363457,0.092437744,-0.132324219,-0.907836914,37.70739746,18.25341797,-74.6257019
0,41:11.7,0:32,60,0,41:24.9,1540932085,-0.038854455,-0.009736517,0.36409034,0.111297607,-0.13899231,-0.862670898,36.96408081,18.39982605,-74.81681824
0,41:11.7,0:32,60,0,41:24.9,1540932085,-0.252732656,-0.078390946,0.464718148,0.116073608,-0.126022339,-0.870574951,36.8505249,19.04376221,-74.79901123
0,41:11.7,0:32,60,0,41:25.0,1540932085,-0.30672878,-0.099534847,0.472201098,0.083511353,-0.102890015,-0.90737915,37.50361633,19.07054138,-74.60636902
0,41:11.7,0:32,60,0,41:25.0,1540932085,-0.266343273,-0.074899808,0.435812464,0.056732178,-0.087982178,-0.923965454,37.50361633,19.07054138,-74.60636902
0,41:11.7,0:32,60,0,41:25.0,1540932085,-0.240283177,-0.00257501,0.409123861,0.036987305,-0.094085693,-0.913726807,38.35578918,18.98014832,-74.48530579
0,41:11.7,0:32,60,0,41:25.0,1540932085,-0.264544841,0.107952034,0.416762074,0.029602051,-0.106445313,-0.896713257,38.76042175,18.35527039,-74.95492554
