SessionID,SessionDate,SessionDuration,SessionFrequency,RecordID,Timestamp,timeIntervalSince1970,GyroX,GyroY,GyroZ,AccX,AccY,AccZ,MagX,MagY,MagZ,WatchTimestamp,WatchtImeIntervalSince1970,WatchGyroX,WatchGyroY,WatchGyroZ,WatchAccX,WatchAccY,WatchAccZ
0,2018-10-30 16:41:11.7400,00:32,60,0,2018-10-30 16:41:11.7580,1540932071.757616,0.107046558964062,-0.20341064616359816,0.3006354670274479,0.008056640625,-0.1051025390625,-1.0798187255859375,43.97584533691406,14.775680541992188,-69.10618591308594,,,,,,,,,,
0,2018-10-30 16:41:11.7400,00:32,60,0,2018-10-30 16:41:11.7770,1540932071.777471,0.15553899398887883,-0.003457049411031859,0.2205558109454193,-0.04278564453125,-0.083221435546875,-1.0207366943359375,44.03196716308594,14.453659057617188,-69.19317626953125,,,,,,,,,,
0,2018-10-30 16:41:11.7400,00:32,60,0,2018-10-30 16:41:11.7930,1540932071.792582,0.18361137503940406,-0.18703460230459193,0.0789688515913566,-0.059478759765625,-0.1020355224609375,-1.058837890625,43.83924865722656,14.8807373046875,-68.95356750488281,,,,,,,,,,
0,2018-10-30 16:41:11.7400,00:32,60,0,2018-10-30 16:41:11.8090,1540932071.809051,0.101198257210248,-0.23970713497639712,-0.07528037348159684,-0.0695037841796875,-0.1122894287109375,-0.9830322265625,43.83924865722656,14.8807373046875,-68.95356750488281,,,,,,,,,,
0,2018-10-30 16:41:11.7400,00:32,60,0,2018-10-30 16:41:11.8260,1540932071.825742,0.024557008411620656,-0.22882146402069822,-0.1791220843898575,-0.0860595703125,-0.1347503662109375,-0.9517059326171875,43.51213073730469,14.712646484375,-68.821533203125,,,,,,,,,,
0,2018-10-30 16:41:11.7400,00:32,60,0,2018-10-30 16:41:11.8420,1540932071.842354,-0.045834866573026746,-0.21175459617492542,-0.22084769340089197,-0.08001708984375,-0.1562957763671875,-0.9327545166015625,43.553924560546875,14.780349731445312,-69.51925659179688,,,,,,,,,,
0,2018-10-30 16:41:11.7400,00:32,60,0,2018-10-30 16:41:11.8590,1540932071.85913,-0.13911634481079618,-0.1535253778886699,-0.22289513164694488,-0.0731658935546875,-0.1912689208984375,-0.9087066650390625,43.50318908691406,14.402496337890625,-69.30191040039062,,,,,,,,,,
0,2018-10-30 16:41:11.7400,00:32,60,0,2018-10-30 16:41:11.8760,1540932071.875987,-0.22202747376379708,0.016736103238384956,-0.13592534519266325,-0.0648956298828125,-0.21710205078125,-0.8830718994140625,43.49664306640625,14.792999267578125,-68.97547912597656,,,,,,,,,,
0,2018-10-30 16:41:11.7400,00:32,60,0,2018-10-30 16:41:11.8930,1540932071.8925428,-0.2940939444418863,0.23420584311262044,0.020706077475366076,-0.0567779541015625,-0.223358154296875,-0.8817291259765625,43.57838439941406,15.010147094726562,-68.8848876953125,,,,,,,,,,
0,2018-10-30 16:41:11.7400,00:32,60,0,2018-10-30 16:41:11.9090,1540932071.909333,-0.2590222434144148,0.3988970565036656,0.13548299413560108,-0.052642822265625,-0.185302734375,-0.9255523681640625,43.57838439941406,15.010147094726562,-68.8848876953125,,,,,,,,,,
0,2018-10-30 16:41:11.7400,00:32,60,0,2018-10-30 16:41:11.9260,1540932071.9259129,0.0738670338910918,0.5722398150119421,0.07671927941856667,-0.089874267578125,-0.1062774658203125,-0.9989471435546875,43.99638366699219,15.005081176757812,-68.94039916992188,,,,,,,,,,
0,2018-10-30 16:41:11.7400,00:32,60,0,2018-10-30 16:41:11.9420,1540932071.942374,0.0738670338910918,0.5722398150119421,0.07671927941856667,-0.089874267578125,-0.1062774658203125,-0.9989471435546875,44.18695068359375,15.2781982421875,-68.91986083984375,,,,,,,,,,
0,2018-10-30 16:41:11.7400,00:32,60,0,2018-10-30 16:41:11.9590,1540932071.959223,0.20343594619395391,0.6449611570020818,-0.027095799878793195,-0.1076812744140625,-0.120452880859375,-1.003021240234375,44.630889892578125,14.80267333984375,-68.67926025390625,,,,,,,,,,
0,2018-10-30 16:41:11.7400,00:32,60,0,2018-10-30 16:41:11.9770,1540932071.97697,0.08185997927074662,0.7885729177329318,-0.21536104892311073,-0.0941162109375,-0.1816253662109375,-0.956390380859375,44.88212585449219,14.75421142578125,-68.19902038574219,,,,,,,,,,
0,2018-10-30 16:41:11.7400,00:32,60,0,2018-10-30 16:41:11.9930,1540932071.9925652,0.08185997927074662,0.7885729177329318,-0.21536104892311073,-0.0941162109375,-0.1816253662109375,-0.956390380859375,45.42315673828125,14.724685668945312,-68.32682800292969,,,,,,,,,,
0,2018-10-30 16:41:11.7400,00:32,60,0,2018-10-30 16:41:12.0090,1540932072.009197,-0.08166077482120869,0.9013468709373181,-0.16485206832088592,-0.0474853515625,-0.2320709228515625,-0.961029052734375,46.111663818359375,14.900436401367188,-67.89251708984375,,,,,,,,,,
0,2018-10-30 16:41:11.7400,00:32,60,0,2018-10-30 16:41:12.0260,1540932072.02599,-0.34857316559720125,0.9036174820827197,-0.09196640929148832,-0.00994873046875,-0.2146453857421875,-1.03759765625,46.111663818359375,14.900436401367188,-67.89251708984375,,,,,,,,,,
0,2018-10-30 16:41:11.7400,00:32,60,0,2018-10-30 16:41:12.0430,1540932072.042554,-0.34857316559720125,0.9036174820827197,-0.09196640929148832,-0.00994873046875,-0.2146453857421875,-1.03759765625,46.551513671875,15.124908447265625,-67.62605285644531,,,,,,,,,,
0,2018-10-30 16:41:11.7400,00:32,60,0,2018-10-30 16:41:12.0590,1540932072.059087,-0.4201600009629672,0.5565447414436692,-0.22195157367272983,0.014129638671875,-0.153533935546875,-1.07672119140625,46.87995910644531,15.293121337890625,-67.6019287109375,,,,,,,,,,
0,2018-10-30 16:41:11.7400,00:32,60,0,2018-10-30 16:41:12.0760,1540932072.07603,-0.3849165260451856,0.3650829001429295,-0.30251086506708175,0.019744873046875,-0.15643310546875,-1.0843048095703125,47.16969299316406,15.70318603515625,-67.1025390625,,,,,,,,,,
0,2018-10-30 16:41:11.7400,00:32,60,0,2018-10-30 16:41:12.0930,1540932072.092639,-0.3849165260451856,0.3650829001429295,-0.30251086506708175,0.019744873046875,-0.15643310546875,-1.0843048095703125,47.339691162109375,15.746917724609375,-67.24777221679688,,,,,,,,,,
0,2018-10-30 16:41:11.7400,00:32,60,0,2018-10-30 16:41:12.1090,1540932072.109188,-0.12837901192781473,0.38660017648633366,-0.34859313930537683,0.009185791015625,-0.1439208984375,-1.071258544921875,47.406585693359375,16.044464111328125,-67.23306274414062,,,,,,,,,,
0,2018-10-30 16:41:11.7400,00:32,60,0,2018-10-30 16:41:12.1260,1540932072.1260638,0.03768612626960229,0.4444261921835512,-0.3314280008153801,0.009185791015625,-0.1439208984375,-1.071258544921875,47.406585693359375,16.044464111328125,-67.23306274414062,,,,,,,,,,
0,2018-10-30 16:41:11.7400,00:32,60,0,2018-10-30 16:41:12.1440,1540932072.144108,0.03768612626960229,0.4444261921835512,-0.3314280008153801,0.0172882080078125,-0.14544677734375,-1.06939697265625,47.550811767578125,16.24945068359375,-67.06147766113281,,,,,,,,,,
0,2018-10-30 16:41:11.7400,00:32,60,0,2018-10-30 16:41:12.1630,1540932072.1626282,0.1327604445532131,0.23171525486117833,-0.38097291710299624,0.0641021728515625,-0.1711578369140625,-1.0732421875,47.58050537109375,16.088592529296875,-66.90974426269531,,,,,,,,,,
0,2018-10-30 16:41:11.7400,00:32,60,0,2018-10-30 16:41:12.1780,1540932072.178282,0.026120550287606178,-0.11335904969587682,-0.3856563521960096,0.0998687744140625,-0.1874847412109375,-1.055816650390625,47.670745849609375,15.915390014648438,-66.91130065917969,,,,,,,,,,
0,2018-10-30 16:41:11.7400,00:32,60,0,2018-10-30 16:41:12.1930,1540932072.193413,-0.13809954990660395,-0.5206911363201504,-0.3711272105529733,0.1209716796875,-0.196075439453125,-1.037506103515625,47.45878601074219,16.11322021484375,-66.6812744140625,,,,,,,,,,
0,2018-10-30 16:41:11.7400,00:32,60,0,2018-10-30 16:41:12.2100,1540932072.210083,-0.2048466226233689,-0.7625194791047956,-0.3242915280422948,0.107940673828125,-0.1899871826171875,-1.041595458984375,46.994293212890625,16.359344482421875,-67.08766174316406,,,,,,,,,,
0,2018-10-30 16:41:11.7400,00:32,60,0,2018-10-30 16:41:12.2270,1540932072.2267761,-0.12383725700479359,-0.8643579602410987,-0.2066418595141913,0.0940704345703125,-0.1912078857421875,-1.059326171875,46.58198547363281,16.674224853515625,-66.9422607421875,,,,,,,,,,
0,2018-10-30 16:41:11.7400,00:32,60,0,2018-10-30 16:41:12.2430,1540932072.243206,-0.002688727436543999,-0.7341256545106978,-0.0662274899880905,0.0664215087890625,-0.2104644775390625,-1.029693603515625,46.58198547363281,16.674224853515625,-66.9422607421875,,,,,,,,,,
0,2018-10-30 16:41:11.7400,00:32,60,0,2018-10-30 16:41:12.2600,1540932072.259834,0.07346569551481685,-0.5645792321363292,0.08816740999649028,0.0471038818359375,-0.224822998046875,-0.9862060546875,46.32765197753906,16.413101196289062,-67.19996643066406,,,,,,,,,,
0,2018-10-30 16:41:11.7400,00:32,60,0,2018-10-30 16:41:12.2770,1540932072.276567,0.07346569551481685,-0.5645792321363292,0.08816740999649028,0.0471038818359375,-0.224822998046875,-0.9862060546875,46.12159729003906,16.2203369140625,-67.37449645996094,,,,,,,,,,
0,2018-10-30 16:41:11.7400,00:32,60,0,2018-10-30 16:41:12.2930,1540932072.2932649,0.017248229116007194,-0.2273186422175665,0.27385605068615615,-0.0083770751953125,-0.24090576171875,-0.931304931640625,46.047515869140625,16.313232421875,-67.140869140625,,,,,,,,,,
0,2018-10-30 16:41:11.7400,00:32,60,0,2018-10-30 16:41:12.3100,1540932072.309933,-0.027845479725650497,-0.10231651855197227,0.227974046161835,-0.0341796875,-0.2123870849609375,-0.9581146240234375,45.990081787109375,16.6351318359375,-67.21006774902344,,,,,,,,,,
0,2018-10-30 16:41:11.7400,00:32,60,0,2018-10-30 16:41:12.3260,1540932072.3264961,-0.03825870590396933,-0.11367729744614129,0.11873464035620176,-0.0389556884765625,-0.1942596435546875,-1.018585205078125,46.09889221191406,16.691146850585938,-67.28012084960938,,,,,,,,,,
0,2018-10-30 16:41:11.7400,00:32,60,0,2018-10-30 16:41:12.3430,1540932072.343162,-0.05608936835037685,-0.23322207140594517,0.032922530027777556,-0.0159912109375,-0.19378662109375,-1.0616455078125,46.09889221191406,16.691146850585938,-67.28012084960938,,,,,,,,,,
0,2018-10-30 16:41:11.7400,00:32,60,0,2018-10-30 16:41:12.3600,1540932072.360152,-0.07792489244404553,-0.32152024261195833,-0.013228187450532584,-0.0009765625,-0.1983184814453125,-1.0625762939453125,46.05976867675781,16.2325439453125,-67.37739562988281,,,,,,,,,,
0,2018-10-30 16:41:11.7400,00:32,60,0,2018-10-30 16:41:12.3780,1540932072.378314,-0.0866720450444108,-0.35494903956296,-0.017550764215840196,0.0057525634765625,-0.2054595947265625,-1.0609893798828125,45.76918029785156,16.522811889648438,-67.46044921875,,,,,,,,,,
0,2018-10-30 16:41:11.7400,00:32,60,0,2018-10-30 16:41:12.3930,1540932072.39333,-0.045630069485199654,-0.3597336747773963,-0.001503620751458738,0.0099029541015625,-0.2040557861328125,-1.0720367431640625,45.70928955078125,16.53521728515625,-67.22906494140625,,,,,,,,,,
0,2018-10-30 16:41:11.7400,00:32,60,0,2018-10-30 16:41:12.4100,1540932072.409976,0.013878265072620926,-0.3020693129583466,0.041387653868703425,0.0134735107421875,-0.20367431640625,-1.0648956298828125,45.58302307128906,16.55938720703125,-67.54727172851562,,,,,,,,,,
0,2018-10-30 16:41:11.7400,00:32,60,0,2018-10-30 16:41:12.4270,1540932072.426722,0.03153315888708322,-0.20303487413378798,0.11753675049788412,0.02020263671875,-0.21051025390625,-1.041290283203125,45.55397033691406,16.720291137695312,-67.62092590332031,,,,,,,,,,
0,2018-10-30 16:41:11.7400,00:32,60,0,2018-10-30 16:41:12.4440,1540932072.444013,0.010875284627447577,-0.13828703644734552,0.20436139467275646,0.0200042724609375,-0.2195587158203125,-1.034820556640625,45.55397033691406,16.720291137695312,-67.62092590332031,,,,,,,,,,
0,2018-10-30 16:41:11.7400,00:32,60,0,2018-10-30 16:41:12.4600,1540932072.4601831,-0.013523265699313364,-0.13831846174820844,0.27076065855115705,0.015289306640625,-0.212127685546875,-1.053863525390625,45.523773193359375,16.57183837890625,-67.23779296875,,,,,,,,,,
0,2018-10-30 16:41:11.7400,00:32,60,0,2018-10-30 16:41:12.4760,1540932072.4761739,-0.0672022069470595,-0.12594408374315527,0.28042660172759964,-0.0001068115234375,-0.192626953125,-1.0585784912109375,45.78337097167969,16.44232177734375,-67.46267700195312,,,,,,,,,,
0,2018-10-30 16:41:11.7400,00:32,60,0,2018-10-30 16:41:12.4930,1540932072.492923,-0.13037984485479126,-0.12306307607590755,0.2526029599228878,-0.0093231201171875,-0.16766357421875,-1.0669097900390625,45.798858642578125,16.3619384765625,-67.30870056152344,,,,,,,,,,
0,2018-10-30 16:41:11.7400,00:32,60,0,2018-10-30 16:41:12.5090,1540932072.509201,-0.18135274811890786,-0.17425116275610258,0.19258383106799004,-0.0152587890625,-0.1419677734375,-1.0968475341796875,45.969512939453125,16.40576171875,-67.3758544921875,,,,,,,,,,
0,2018-10-30 16:41:11.7400,00:32,60,0,2018-10-30 16:41:12.5260,1540932072.5258331,-0.15986263601862247,-0.2574757457694058,0.1260825681198394,-0.0229949951171875,-0.1229400634765625,-1.1226959228515625,45.72724914550781,16.76434326171875,-67.37568664550781,,,,,,,,,,
0,2018-10-30 16:41:11.7400,00:32,60,0,2018-10-30 16:41:12.5430,1540932072.542608,-0.11601874867653895,-0.33521980957543496,-0.012165053543372953,-0.0554962158203125,-0.11358642578125,-1.125823974609375,45.72724914550781,16.76434326171875,-67.37568664550781,,,,,,,,,,
0,2018-10-30 16:41:11.7400,00:32,60,0,2018-10-30 16:41:12.5590,1540932072.559143,-0.07143503518363144,-0.3393615577027262,-0.16531412677001467,-0.0753021240234375,-0.1131439208984375,-1.0951080322265625,45.728546142578125,16.76446533203125,-67.219482421875,,,,,,,,,,
0,2018-10-30 16:41:11.7400,00:32,60,0,2018-10-30 16:41:12.5760,1540932072.575974,-0.04785274373097979,-0.3218880251584983,-0.2638175312732115,-0.0630645751953125,-0.1161041259765625,-1.0607452392578125,45.60356140136719,16.788772583007812,-67.38150024414062,,,,,,,,,,
0,2018-10-30 16:41:11.7400,00:32,60,0,2018-10-30 16:41:12.5930,1540932072.592628,-0.012827648022584667,-0.3133057222296089,-0.3302088056683418,-0.04833984375,-0.107391357421875,-1.0348052978515625,45.356231689453125,16.837615966796875,-67.39314270019531,,,,,,,,,,
0,2018-10-30 16:41:11.7400,00:32,60,0,2018-10-30 16:41:12.6090,1540932072.609242,0.10064565128405656,-0.26006593624561686,-0.3922804327753637,-0.044525146484375,-0.09405517578125,-1.0172882080078125,45.214599609375,16.632904052734375,-67.25233459472656,,,,,,,,,,
0,2018-10-30 16:41:11.7400,00:32,60,0,2018-10-30 16:41:12.6260,1540932072.625854,0.26950018440722256,-0.14364558287669396,-0.4285867752841959,-0.0382843017578125,-0.0836334228515625,-0.99371337890625,45.184906005859375,16.79376220703125,-67.40409851074219,,,,,,,,,,
0,2018-10-30 16:41:11.7400,00:32,60,0,2018-10-30 16:41:12.6430,1540932072.642662,0.4208558849558049,0.02579164989298139,-0.4273433453712379,-0.02728271484375,-0.0880889892578125,-0.95953369140625,45.15081787109375,16.644927978515625,-67.48954772949219,,,,,,,,,,
0,2018-10-30 16:41:11.7400,00:32,60,0,2018-10-30 16:41:12.6600,1540932072.660285,0.5204631697308396,0.19982496607191547,-0.36932611470775273,-0.0059661865234375,-0.104034423828125,-0.9367218017578125,45.15081787109375,16.644927978515625,-67.48954772949219,,,,,,,,,,
0,2018-10-30 16:41:11.7400,00:32,60,0,2018-10-30 16:41:12.6760,1540932072.676022,0.5424496950583158,0.3202829379695075,-0.25138802583359365,0.021575927734375,-0.1128082275390625,-0.92498779296875,45.48512268066406,16.422561645507812,-67.86993408203125,,,,,,,,,,
0,2018-10-30 16:41:11.7400,00:32,60,0,2018-10-30 16:41:12.6930,1540932072.692766,0.5290651800517955,0.38264351805480296,-0.12601705435702343,0.045257568359375,-0.121551513671875,-0.935272216796875,45.79249572753906,16.052078247070312,-67.47671508789062,,,,,,,,,,
0,2018-10-30 16:41:11.7400,00:32,60,0,2018-10-30 16:41:12.7090,1540932072.709429,0.3953896733480312,0.23917716591947133,0.09764826347717237,0.0810546875,-0.1515350341796875,-0.9625091552734375,46.037872314453125,16.003036499023438,-67.69935607910156,,,,,,,,,,
0,2018-10-30 16:41:11.7400,00:32,60,0,2018-10-30 16:41:12.7260,1540932072.725937,0.3953896733480312,0.23917716591947133,0.09764826347717237,0.0810546875,-0.1515350341796875,-0.9625091552734375,46.15718078613281,15.668914794921875,-67.62724304199219,,,,,,,,,,
0,2018-10-30 16:41:11.7400,00:32,60,0,2018-10-30 16:41:12.7430,1540932072.742758,0.22211722229253275,0.12669296464168556,0.24211756207902782,0.0824737548828125,-0.166046142578125,-0.945892333984375,46.499786376953125,15.756637573242188,-67.60536193847656,,,,,,,,,,
0,2018-10-30 16:41:11.7400,00:32,60,0,2018-10-30 16:41:12.7590,1540932072.759295,0.020006198740893252,0.09224577488983762,0.41560333233784164,0.0847625732421875,-0.1688995361328125,-0.930328369140625,46.499786376953125,15.756637573242188,-67.60536193847656,,,,,,,,,,
0,2018-10-30 16:41:11.7400,00:32,60,0,2018-10-30 16:41:12.7760,1540932072.77632,-0.087687242051949,0.12277625362650602,0.6127054825112601,0.093048095703125,-0.13800048828125,-0.9582366943359375,46.8758544921875,15.993118286132812,-67.57609558105469,,,,,,,,,,
0,2018-10-30 16:41:11.7400,00:32,60,0,2018-10-30 16:41:12.7930,1540932072.7927651,-0.04957580895626105,0.17583973834633485,0.7755327494553588,0.09185791015625,-0.0798492431640625,-0.998077392578125,47.197418212890625,15.542144775390625,-67.18508911132812,,,,,,,,,,
0,2018-10-30 16:41:11.7400,00:32,60,0,2018-10-30 16:41:12.8090,1540932072.80931,0.1215826248259325,0.10278496858771721,0.781826598059543,0.0529022216796875,-0.014923095703125,-1.045684814453125,47.363677978515625,15.2762451171875,-67.18594360351562,,,,,,,,,,
0,2018-10-30 16:41:11.7400,00:32,60,0,2018-10-30 16:41:12.8260,1540932072.8259568,0.32432348597537575,-0.01849565377060031,0.6006525480497795,-0.0123138427734375,0.022796630859375,-1.0406494140625,47.83717346191406,14.949111938476562,-67.40655517578125,,,,,,,,,,
0,2018-10-30 16:41:11.7400,00:32,60,0,2018-10-30 16:41:12.8430,1540932072.8426862,0.48634887511525154,0.3586969061650285,0.014246580251378885,-0.120513916015625,-0.0351409912109375,-0.8955841064453125,48.11421203613281,14.739395141601562,-67.2431640625,,,,,,,,,,
0,2018-10-30 16:41:11.7400,00:32,60,0,2018-10-30 16:41:12.8590,1540932072.8593721,0.48634887511525154,0.3586969061650285,0.014246580251378885,-0.120513916015625,-0.0351409912109375,-0.8955841064453125,48.11421203613281,14.739395141601562,-67.2431640625,,,,,,,,,,
0,2018-10-30 16:41:11.7400,00:32,60,0,2018-10-30 16:41:12.8770,1540932072.8772159,0.43788387064966255,0.5298915589380471,-0.21469499233448192,-0.1025848388671875,-0.0960235595703125,-0.8850555419921875,48.30232238769531,14.703018188476562,-66.92207336425781,,,,,,,,,,
0,2018-10-30 16:41:11.7400,00:32,60,0,2018-10-30 16:41:12.8930,1540932072.892784,0.12329636898739849,0.378309489696808,-0.23194002565718103,0.034088134765625,-0.2354888916015625,-0.917816162109375,48.685577392578125,14.549072265625,-67.14111328125,,,,,,,,,,
0,2018-10-30 16:41:11.7400,00:32,60,0,2018-10-30 16:41:12.9090,1540932072.9093251,0.12329636898739849,0.378309489696808,-0.23194002565718103,0.034088134765625,-0.2354888916015625,-0.917816162109375,49.07273864746094,14.3955078125,-66.89161682128906,,,,,,,,,,
0,2018-10-30 16:41:11.7400,00:32,60,0,2018-10-30 16:41:12.9260,1540932072.9259272,-0.12483034977528414,0.03954288218160554,-0.12199940953652991,0.0822601318359375,-0.262786865234375,-0.9373016357421875,49.2613525390625,14.668441772460938,-67.1053466796875,,,,,,,,,,
0,2018-10-30 16:41:11.7400,00:32,60,0,2018-10-30 16:41:12.9430,1540932072.9429321,-0.21606811819252678,-0.3074805899772786,0.05321581753418135,0.0634307861328125,-0.2196044921875,-1.0387115478515625,49.17112731933594,14.841629028320312,-67.10380554199219,,,,,,,,,,
0,2018-10-30 16:41:11.7400,00:32,60,0,2018-10-30 16:41:12.9590,1540932072.959444,-0.21606811819252678,-0.3074805899772786,0.05321581753418135,0.0634307861328125,-0.2196044921875,-1.0387115478515625,49.29985046386719,15.126983642578125,-67.086181640625,,,,,,,,,,
0,2018-10-30 16:41:11.7400,00:32,60,0,2018-10-30 16:41:12.9760,1540932072.976125,0.08904572052399842,-0.3679058508984135,0.09590229506651643,0.05902099609375,-0.2237396240234375,-1.0726165771484375,49.29985046386719,15.126983642578125,-67.086181640625,,,,,,,,,,
0,2018-10-30 16:41:11.7400,00:32,60,0,2018-10-30 16:41:12.9930,1540932072.992913,0.08698123804696899,-0.5576089406152648,0.20596754712618323,0.058563232421875,-0.2526702880859375,-1.060577392578125,49.1910400390625,15.07098388671875,-67.01612854003906,,,,,,,,,,
0,2018-10-30 16:41:11.7400,00:32,60,0,2018-10-30 16:41:13.0090,1540932073.0094972,0.08698123804696899,-0.5576089406152648,0.20596754712618323,0.058563232421875,-0.2526702880859375,-1.060577392578125,49.07258605957031,14.704757690429688,-67.50456237792969,,,,,,,,,,
0,2018-10-30 16:41:11.7400,00:32,60,0,2018-10-30 16:41:13.0260,1540932073.026124,0.04588413505319321,-0.8796154764422716,0.2259266079157821,-0.049072265625,-0.1502838134765625,-1.09393310546875,48.89215087890625,15.0511474609375,-67.50148010253906,,,,,,,,,,
0,2018-10-30 16:41:11.7400,00:32,60,0,2018-10-30 16:41:13.0430,1540932073.042893,-0.003505785258980309,-0.6794783878905988,0.06448525000296065,-0.1170654296875,-0.0802154541015625,-1.0597991943359375,48.73307800292969,14.926605224609375,-67.74896240234375,,,,,,,,,,
0,2018-10-30 16:41:11.7400,00:32,60,0,2018-10-30 16:41:13.0600,1540932073.059877,-0.003505785258980309,-0.6794783878905988,0.06448525000296065,-0.1170654296875,-0.0802154541015625,-1.0597991943359375,48.49076843261719,15.28521728515625,-67.74879455566406,,,,,,,,,,
0,2018-10-30 16:41:11.7400,00:32,60,0,2018-10-30 16:41:13.0780,1540932073.07752,0.06804989112203172,-0.4791612696492367,-0.4321647322087174,-0.1897125244140625,-0.23675537109375,-1.11273193359375,48.49076843261719,15.28521728515625,-67.74879455566406,,,,,,,,,,
0,2018-10-30 16:41:11.7400,00:32,60,0,2018-10-30 16:41:13.0940,1540932073.0937781,0.10205792561012557,-0.23924188073396027,-0.4640028230406147,-0.120269775390625,-0.23779296875,-1.0513916015625,48.43074035644531,15.606857299804688,-68.13037109375,,,,,,,,,,
0,2018-10-30 16:41:11.7400,00:32,60,0,2018-10-30 16:41:13.1110,1540932073.110721,0.08625845612712149,-0.007801464097278121,-0.41980819738296776,-0.07037353515625,-0.2248992919921875,-1.02301025390625,48.36711120605469,15.30963134765625,-67.75460815429688,,,,,,,,,,
0,2018-10-30 16:41:11.7400,00:32,60,0,2018-10-30 16:41:13.1260,1540932073.126248,-0.012277971573592311,0.05688645246463757,-0.40150003015310903,-0.053924560546875,-0.22991943359375,-1.020355224609375,48.680694580078125,15.558273315429688,-67.80633544921875,,,,,,,,,,
0,2018-10-30 16:41:11.7400,00:32,60,0,2018-10-30 16:41:13.1430,1540932073.1429892,-0.2105367326084322,-0.04947434251872903,-0.3758828173115278,-0.033294677734375,-0.2335052490234375,-1.0085906982421875,48.70501708984375,16.0972900390625,-67.78495788574219,,,,,,,,,,
0,2018-10-30 16:41:11.7400,00:32,60,0,2018-10-30 16:41:13.1600,1540932073.159689,-0.4200955524645873,-0.22298780965287965,-0.3000152168095685,-0.035369873046875,-0.2402801513671875,-1.0215606689453125,48.54510498046875,16.673080444335938,-67.61610412597656,,,,,,,,,,
0,2018-10-30 16:41:11.7400,00:32,60,0,2018-10-30 16:41:13.1760,1540932073.176199,-0.5335443506891998,-0.3822469733684902,-0.23272006554046523,-0.0456085205078125,-0.197357177734375,-1.0589752197265625,48.54510498046875,16.673080444335938,-67.61610412597656,,,,,,,,,,
0,2018-10-30 16:41:11.7400,00:32,60,0,2018-10-30 16:41:13.1930,1540932073.1931748,-0.3584335195332196,-0.36356995832765543,-0.18455040563976602,-0.0664825439453125,-0.144683837890625,-1.111541748046875,48.51982116699219,17.14361572265625,-67.83412170410156,,,,,,,,,,
0,2018-10-30 16:41:11.7400,00:32,60,0,2018-10-30 16:41:13.2100,1540932073.209533,-0.10705135265402414,-0.1073453656383689,-0.2174915777951741,-0.0847625732421875,-0.0758819580078125,-1.0639190673828125,48.495819091796875,17.614288330078125,-67.89596557617188,,,,,,,,,,
0,2018-10-30 16:41:11.7400,00:32,60,0,2018-10-30 16:41:13.2260,1540932073.226241,0.050348924620711055,0.24176522586681035,-0.26207502497197266,-0.0819244384765625,-0.0433197021484375,-0.9823760986328125,48.882354736328125,17.460678100585938,-67.72453308105469,,,,,,,,,,
0,2018-10-30 16:41:11.7400,00:32,60,0,2018-10-30 16:41:13.2430,1540932073.242896,0.04922533695680662,0.3360216873796578,-0.29836778535924546,-0.0496978759765625,-0.0267486572265625,-0.966339111328125,48.886077880859375,17.770294189453125,-67.86892700195312,,,,,,,,,,
0,2018-10-30 16:41:11.7400,00:32,60,0,2018-10-30 16:41:13.2600,1540932073.2596989,0.041668084731488766,0.2042021376395697,-0.31459149640389916,-0.0244140625,-0.01959228515625,-1.0031890869140625,48.82341003417969,18.482818603515625,-67.45550537109375,,,,,,,,,,
0,2018-10-30 16:41:11.7400,00:32,60,0,2018-10-30 16:41:13.2760,1540932073.276438,0.12104626418239055,0.013115535736422232,-0.3244840745891075,-0.023468017578125,-0.023834228515625,-1.0282440185546875,49.07270812988281,18.434173583984375,-67.20957946777344,,,,,,,,,,
0,2018-10-30 16:41:11.7400,00:32,60,0,2018-10-30 16:41:13.2930,1540932073.292994,0.2571404537881648,-0.08878899179491478,-0.3225008185253255,-0.0462188720703125,-0.0480804443359375,-1.007171630859375,49.07270812988281,18.434173583984375,-67.20957946777344,,,,,,,,,,
0,2018-10-30 16:41:11.7400,00:32,60,0,2018-10-30 16:41:13.3100,1540932073.309698,0.3484229633117208,-0.02160516065937683,-0.30209354772426633,-0.0796966552734375,-0.084686279296875,-0.941009521484375,49.17698669433594,18.48974609375,-67.82630920410156,,,,,,,,,,
0,2018-10-30 16:41:11.7400,00:32,60,0,2018-10-30 16:41:13.3270,1540932073.327186,0.36634710271239007,0.10767320076855764,-0.21626945317093677,-0.088531494140625,-0.135467529296875,-0.8937225341796875,49.31797790527344,18.69439697265625,-68.04521179199219,,,,,,,,,,
0,2018-10-30 16:41:11.7400,00:32,60,0,2018-10-30 16:41:13.3430,1540932073.3429031,0.261280071386584,0.17737345281811148,-0.08337132318936659,-0.0650482177734375,-0.1632843017578125,-0.8739776611328125,49.61228942871094,18.713760375976562,-68.10653686523438,,,,,,,,,,
0,2018-10-30 16:41:11.7400,00:32,60,0,2018-10-30 16:41:13.3600,1540932073.359643,0.05872083782348415,0.09110327878219364,0.06756253264254722,-0.0361175537109375,-0.1721343994140625,-0.8912506103515625,49.67985534667969,19.011383056640625,-68.01373291015625,,,,,,,,,,
0,2018-10-30 16:41:11.7400,00:32,60,0,2018-10-30 16:41:13.3760,1540932073.376385,-0.14835138852286398,-0.02541720944371625,0.22060188363227767,-0.029815673828125,-0.164703369140625,-0.911651611328125,49.78080749511719,19.457748413085938,-67.91355895996094,,,,,,,,,,
0,2018-10-30 16:41:11.7400,00:32,60,0,2018-10-30 16:41:13.3930,1540932073.3929749,-0.26595019067414694,-0.058255317264938294,0.3298175873042092,-0.05517578125,-0.1529388427734375,-0.9392242431640625,49.78080749511719,19.457748413085938,-67.91355895996094,,,,,,,,,,
0,2018-10-30 16:41:11.7400,00:32,60,0,2018-10-30 16:41:13.4100,1540932073.409708,-0.2983592632437572,-0.012803679572773953,0.40162919346597786,-0.0794219970703125,-0.1427001953125,-0.9549713134765625,50.19947814941406,19.452789306640625,-67.89096069335938,,,,,,,,,,
0,2018-10-30 16:41:11.7400,00:32,60,0,2018-10-30 16:41:13.4270,1540932073.426635,-0.29552352931504083,0.06926003152136373,0.42957214488752526,-0.0981597900390625,-0.1268310546875,-0.9625701904296875,50.31465148925781,19.818679809570312,-67.79301452636719,,,,,,,,,,
0,2018-10-30 16:41:11.7400,00:32,60,0,2018-10-30 16:41:13.4430,1540932073.4431028,-0.2660687013426555,0.16322727373982857,0.3922008042587703,-0.1140289306640625,-0.1074981689453125,-0.97021484375,50.52006530761719,20.011367797851562,-67.69660949707031,,,,,,,,,,
0,2018-10-30 16:41:11.7400,00:32,60,0,2018-10-30 16:41:13.4620,1540932073.4615479,-0.18369206882043346,0.27087171236861335,0.32377860321634555,-0.1260986328125,-0.11004638671875,-0.9904937744140625,50.96302795410156,20.54541015625,-67.65261840820312,,,,,,,,,,
0,2018-10-30 16:41:11.7400,00:32,60,0,2018-10-30 16:41:13.4770,1540932073.477265,-0.04482339799101465,0.32084140285009716,0.20708287899070843,-0.143218994140625,-0.1183624267578125,-1.020477294921875,51.00086975097656,21.003875732421875,-67.71156311035156,,,,,,,,,,
0,2018-10-30 16:41:11.7400,00:32,60,0,2018-10-30 16:41:13.4930,1540932073.493135,0.09677368137519035,0.3083514436537345,0.015349128942671689,-0.149200439453125,-0.1189422607421875,-1.0286102294921875,51.00086975097656,21.003875732421875,-67.71156311035156,,,,,,,,,,
0,2018-10-30 16:41:11.7400,00:32,60,0,2018-10-30 16:41:13.5100,1540932073.509968,0.15909990668242377,0.26969779096010643,-0.2053110779174787,-0.122283935546875,-0.1221160888671875,-0.9930267333984375,51.34739685058594,21.091964721679688,-67.2210693359375,,,,,,,,,,
0,2018-10-30 16:41:11.7400,00:32,60,0,2018-10-30 16:41:13.5260,1540932073.526443,0.16638844595375263,0.2301309403286902,-0.3360067736775534,-0.0681304931640625,-0.14532470703125,-0.960845947265625,51.25653076171875,21.265106201171875,-67.29762268066406,,,,,,,,,,
0,2018-10-30 16:41:11.7400,00:32,60,0,2018-10-30 16:41:13.5440,1540932073.544133,0.1837139067413721,0.1661753930665463,-0.342515006749489,-0.01312255859375,-0.190185546875,-0.9631195068359375,51.32081604003906,21.562393188476562,-67.59529113769531,,,,,,,,,,
0,2018-10-30 16:41:11.7400,00:32,60,0,2018-10-30 16:41:13.5600,1540932073.559906,0.21802074790377288,0.12989594848472386,-0.2783163128798209,0.0054473876953125,-0.222503662109375,-0.9759979248046875,51.294219970703125,22.032821655273438,-67.96951293945312,,,,,,,,,,
0,2018-10-30 16:41:11.7400,00:32,60,0,2018-10-30 16:41:13.5760,1540932073.5764,0.2144190888455497,0.09406604549490678,-0.2355251731166457,-0.004547119140625,-0.2235107421875,-0.9794921875,51.3604736328125,22.330307006835938,-68.03291320800781,,,,,,,,,,
0,2018-10-30 16:41:11.7400,00:32,60,0,2018-10-30 16:41:13.5930,1540932073.593189,0.16995921234333086,0.07823009070496861,-0.2258962478793552,-0.02264404296875,-0.2198638916015625,-0.9870147705078125,51.3604736328125,22.330307006835938,-68.03291320800781,,,,,,,,,,
0,2018-10-30 16:41:11.7400,00:32,60,0,2018-10-30 16:41:13.6100,1540932073.60973,0.09299438947225891,0.0853513834598405,-0.19909739046210584,-0.020416259765625,-0.221405029296875,-0.9976348876953125,51.17936706542969,22.676620483398438,-68.10792541503906,,,,,,,,,,
0,2018-10-30 16:41:11.7400,00:32,60,0,2018-10-30 16:41:13.6260,1540932073.6264539,-0.06668635264391115,0.10835976369758007,0.11044848094052923,0.042236328125,-0.2223663330078125,-1.0596466064453125,51.074951171875,22.930313110351562,-68.10417175292969,,,,,,,,,,
0,2018-10-30 16:41:11.7400,00:32,60,0,2018-10-30 16:41:13.6430,1540932073.6430511,-0.06668635264391115,0.10835976369758007,0.11044848094052923,0.042236328125,-0.2223663330078125,-1.0596466064453125,51.13482666015625,22.91790771484375,-68.33552551269531,,,,,,,,,,
0,2018-10-30 16:41:11.7400,00:32,60,0,2018-10-30 16:41:13.6600,1540932073.659889,-0.0947824358281381,0.07551712850250489,0.2763983042627458,0.0435638427734375,-0.1866455078125,-1.10101318359375,51.20237731933594,23.21551513671875,-68.24270629882812,,,,,,,,,,
0,2018-10-30 16:41:11.7400,00:32,60,0,2018-10-30 16:41:13.6770,1540932073.676546,-0.11707469204875537,-0.2735559124313042,0.25776842717320547,-0.0294342041015625,-0.099029541015625,-1.1315155029296875,50.98439025878906,24.113143920898438,-68.22116088867188,,,,,,,,,,
0,2018-10-30 16:41:11.7400,00:32,60,0,2018-10-30 16:41:13.6930,1540932073.69318,-0.11707469204875537,-0.2735559124313042,0.25776842717320547,-0.0294342041015625,-0.099029541015625,-1.1315155029296875,50.80134582519531,24.459274291992188,-68.53045654296875,,,,,,,,,,
0,2018-10-30 16:41:11.7400,00:32,60,0,2018-10-30 16:41:13.7100,1540932073.7098598,-0.18179829496927813,-0.4647714113312115,0.08513939583707018,-0.093597412109375,-0.0963897705078125,-1.106903076171875,50.80134582519531,24.459274291992188,-68.53045654296875,,,,,,,,,,
0,2018-10-30 16:41:11.7400,00:32,60,0,2018-10-30 16:41:13.7270,1540932073.7265139,-0.4092588836729459,-0.4333889873618268,0.08630372986565284,-0.0396881103515625,-0.143096923828125,-1.0609588623046875,50.44633483886719,24.761505126953125,-68.92881774902344,,,,,,,,,,
0,2018-10-30 16:41:11.7400,00:32,60,0,2018-10-30 16:41:13.7430,1540932073.743434,-0.4092588836729459,-0.4333889873618268,0.08630372986565284,-0.0396881103515625,-0.143096923828125,-1.0609588623046875,49.881317138671875,25.26171875,-68.86286926269531,,,,,,,,,,
0,2018-10-30 16:41:11.7400,00:32,60,0,2018-10-30 16:41:13.7610,1540932073.7610478,-0.30338784401404484,-0.1925553352443262,0.46458951742875915,0.005035400390625,-0.1420745849609375,-1.112213134765625,49.776885986328125,25.515396118164062,-68.85911560058594,,,,,,,,,,
0,2018-10-30 16:41:11.7400,00:32,60,0,2018-10-30 16:41:13.7770,1540932073.776637,-0.26895290480321127,-0.09490494123828175,0.5760713048722391,-0.0136871337890625,-0.0830230712890625,-1.10089111328125,49.83528137207031,26.2032470703125,-68.75225830078125,,,,,,,,,,
0,2018-10-30 16:41:11.7400,00:32,60,0,2018-10-30 16:41:13.7930,1540932073.793297,-0.26895290480321127,-0.09490494123828175,0.5760713048722391,-0.0136871337890625,-0.0830230712890625,-1.10089111328125,49.74507141113281,26.376434326171875,-68.750732421875,,,,,,,,,,
0,2018-10-30 16:41:11.7400,00:32,60,0,2018-10-30 16:41:13.8100,1540932073.809885,-0.25123223090982405,-0.268473003174779,0.39059385285701653,-0.0798797607421875,0.048248291015625,-1.0832672119140625,49.74507141113281,26.376434326171875,-68.750732421875,,,,,,,,,,
0,2018-10-30 16:41:11.7400,00:32,60,0,2018-10-30 16:41:13.8270,1540932073.826509,-0.06470735763787326,-0.33527760017108965,0.14952264677028082,-0.1124114990234375,0.07501220703125,-1.06884765625,49.62449645996094,26.710418701171875,-68.97901916503906,,,,,,,,,,
0,2018-10-30 16:41:11.7400,00:32,60,0,2018-10-30 16:41:13.8430,1540932073.8432841,-0.06470735763787326,-0.33527760017108965,0.14952264677028082,-0.1124114990234375,0.07501220703125,-1.06884765625,49.34877014160156,26.920257568359375,-68.9862060546875,,,,,,,,,,
0,2018-10-30 16:41:11.7400,00:32,60,0,2018-10-30 16:41:13.8600,1540932073.859895,0.33323948298885203,-0.023277892140055597,-0.11790373409609704,-0.108154296875,-0.01190185546875,-0.9367523193359375,48.913970947265625,27.005538940429688,-69.24085998535156,,,,,,,,,,
0,2018-10-30 16:41:11.7400,00:32,60,0,2018-10-30 16:41:13.8770,1540932073.876667,0.3554912591609001,0.10934513330090939,-0.06741499351815683,-0.0648193359375,-0.091766357421875,-0.8976898193359375,48.60282897949219,27.06640625,-69.48970031738281,,,,,,,,,,
0,2018-10-30 16:41:11.7400,00:32,60,0,2018-10-30 16:41:13.8930,1540932073.89323,0.2559763860756912,0.20819554769414353,0.06551775755758438,-0.0361328125,-0.154876708984375,-0.8759613037109375,48.465606689453125,27.171371459960938,-69.41519165039062,,,,,,,,,,
0,2018-10-30 16:41:11.7400,00:32,60,0,2018-10-30 16:41:13.9100,1540932073.909923,0.10163634720956603,0.3054475328011121,0.18882398024101615,-0.0304107666015625,-0.1696624755859375,-0.8663177490234375,48.465606689453125,27.171371459960938,-69.41519165039062,,,,,,,,,,
0,2018-10-30 16:41:11.7400,00:32,60,0,2018-10-30 16:41:13.9270,1540932073.926557,-0.024585504235284505,0.3582207329621223,0.2778009912088905,-0.0191192626953125,-0.1506805419921875,-0.900543212890625,48.54280090332031,27.388046264648438,-69.87127685546875,,,,,,,,,,
0,2018-10-30 16:41:11.7400,00:32,60,0,2018-10-30 16:41:13.9430,1540932073.943317,-0.09551906618565402,0.34881151851476333,0.3666879873319202,0.0012969970703125,-0.1316680908203125,-0.959197998046875,48.6845703125,27.28350830078125,-69.39910888671875,,,,,,,,,,
0,2018-10-30 16:41:11.7400,00:32,60,0,2018-10-30 16:41:13.9600,1540932073.9599628,-0.10633656021744688,0.33460595094417167,0.4287830502565348,0.00274658203125,-0.1103515625,-0.9957733154296875,48.80499267578125,27.258773803710938,-69.78376770019531,,,,,,,,,,
0,2018-10-30 16:41:11.7400,00:32,60,0,2018-10-30 16:41:13.9780,1540932073.977766,-0.06784988772416677,0.28014750244535935,0.43084833168189124,-0.011688232421875,-0.0890350341796875,-1.0286407470703125,48.73350524902344,27.3519287109375,-69.23779296875,,,,,,,,,,
0,2018-10-30 16:41:11.7400,00:32,60,0,2018-10-30 16:41:13.9930,1540932073.993336,-0.0029382656306844233,0.2149234915560107,0.3568627871222909,-0.0364837646484375,-0.068359375,-1.0438690185546875,48.874481201171875,27.55657958984375,-69.4566650390625,,,,,,,,,,
0,2018-10-30 16:41:11.7400,00:32,60,0,2018-10-30 16:41:14.0100,1540932074.010359,0.01762852851967051,0.13725719205381187,0.25503016494038605,-0.0430908203125,-0.0575103759765625,-1.0232391357421875,48.75456237792969,27.890625,-69.60687255859375,,,,,,,,,,
0,2018-10-30 16:41:11.7400,00:32,60,0,2018-10-30 16:41:14.0270,1540932074.0266972,0.028067853676672114,-0.0031095068887765187,0.16918556404666285,-0.03790283203125,-0.06414794921875,-1.02569580078125,48.75456237792969,27.890625,-69.60687255859375,,,,,,,,,,
0,2018-10-30 16:41:11.7400,00:32,60,0,2018-10-30 16:41:14.0430,1540932074.043394,0.08087434335130829,-0.12865464910063792,0.06193181114979268,-0.0517120361328125,-0.069580078125,-1.0191192626953125,48.61473083496094,27.995346069335938,-69.84474182128906,,,,,,,,,,
0,2018-10-30 16:41:11.7400,00:32,60,0,2018-10-30 16:41:14.0600,1540932074.060102,0.18424813685604202,-0.15507427237866,-0.0709125229777579,-0.08367919921875,-0.078704833984375,-0.9912109375,48.25286865234375,27.678375244140625,-69.876220703125,,,,,,,,,,
0,2018-10-30 16:41:11.7400,00:32,60,0,2018-10-30 16:41:14.0770,1540932074.0766711,0.26745301247727865,-0.08398544813673886,-0.19613568901382872,-0.10302734375,-0.0980987548828125,-0.9481658935546875,47.78837585449219,27.92449951171875,-70.28263854980469,,,,,,,,,,
0,2018-10-30 16:41:11.7400,00:32,60,0,2018-10-30 16:41:14.0930,1540932074.093353,0.2922864570100495,0.0696560435754585,-0.26877074458464983,-0.0955352783203125,-0.12750244140625,-0.9126434326171875,47.527496337890625,28.053909301757812,-70.21394348144531,,,,,,,,,,
0,2018-10-30 16:41:11.7400,00:32,60,0,2018-10-30 16:41:14.1100,1540932074.110012,0.2818774918894748,0.19625712915953633,-0.25683259236615164,-0.060943603515625,-0.167694091796875,-0.9324493408203125,47.477264404296875,27.985382080078125,-70.53147888183594,,,,,,,,,,
0,2018-10-30 16:41:11.7400,00:32,60,0,2018-10-30 16:41:14.1270,1540932074.127019,0.28027852997099123,0.2662814879137528,-0.1828563688703666,-0.0263824462890625,-0.19000244140625,-0.9866943359375,47.477264404296875,27.985382080078125,-70.53147888183594,,,,,,,,,,
0,2018-10-30 16:41:11.7400,00:32,60,0,2018-10-30 16:41:14.1440,1540932074.143633,0.25551805605208855,0.23052615343445795,-0.10793419055538542,-0.0059967041015625,-0.194732666015625,-1.0380096435546875,46.858245849609375,28.107406616210938,-70.638671875,,,,,,,,,,
0,2018-10-30 16:41:11.7400,00:32,60,0,2018-10-30 16:41:14.1600,1540932074.160213,0.15757311642948135,0.14260721636767207,-0.06625545317953632,-0.00592041015625,-0.1883392333984375,-1.0601654052734375,46.86347961425781,27.716766357421875,-71.12127685546875,,,,,,,,,,
0,2018-10-30 16:41:11.7400,00:32,60,0,2018-10-30 16:41:14.1770,1540932074.176707,0.05444832848667003,0.062343535854318934,-0.03313291975389382,-0.0058135986328125,-0.1714935302734375,-1.080108642578125,46.50471496582031,27.709365844726562,-71.375244140625,,,,,,,,,,
0,2018-10-30 16:41:11.7400,00:32,60,0,2018-10-30 16:41:14.1950,1540932074.194559,0.02246403011092738,0.03437874651183288,0.004320446236435548,-0.0137176513671875,-0.147216796875,-1.1070098876953125,46.42933654785156,27.8021240234375,-71.2978515625,,,,,,,,,,
0,2018-10-30 16:41:11.7400,00:32,60,0,2018-10-30 16:41:14.2100,1540932074.21012,0.03970320447922831,-0.032919334234469466,0.022437931132244605,-0.027801513671875,-0.1245880126953125,-1.1373443603515625,45.985382080078125,28.277664184570312,-71.5384521484375,,,,,,,,,,
0,2018-10-30 16:41:11.7400,00:32,60,0,2018-10-30 16:41:14.2270,1540932074.226805,0.01793638994168367,-0.10940185863212808,-0.0033518545479737294,-0.0694427490234375,-0.1263275146484375,-1.137054443359375,45.985382080078125,28.277664184570312,-71.5384521484375,,,,,,,,,,
0,2018-10-30 16:41:11.7400,00:32,60,0,2018-10-30 16:41:14.2430,1540932074.243476,-0.11798629208988949,-0.10900318341694322,-0.04722397139761208,-0.09869384765625,-0.13134765625,-1.093536376953125,45.6434326171875,28.19000244140625,-71.48225402832031,,,,,,,,,,
0,2018-10-30 16:41:11.7400,00:32,60,0,2018-10-30 16:41:14.2600,1540932074.260155,-0.2595016124106291,-0.03707892554106423,-0.11242374752104099,-0.081573486328125,-0.0980987548828125,-1.0628204345703125,45.381866455078125,28.3193359375,-71.49166870117188,,,,,,,,,,
0,2018-10-30 16:41:11.7400,00:32,60,0,2018-10-30 16:41:14.2770,1540932074.276706,-0.2711390937420573,0.07115087589531999,-0.10157882293002032,-0.0670928955078125,-0.1030426025390625,-1.0895233154296875,44.792572021484375,28.280548095703125,-71.44711303710938,,,,,,,,,,
0,2018-10-30 16:41:11.7400,00:32,60,0,2018-10-30 16:41:14.2940,1540932074.293509,-0.1913257537690366,0.1695030128486003,-0.004028297464853856,-0.0173797607421875,-0.079620361328125,-1.1095733642578125,44.57670593261719,28.477951049804688,-71.68569946289062,,,,,,,,,,
0,2018-10-30 16:41:11.7400,00:32,60,0,2018-10-30 16:41:14.3100,1540932074.3101249,-0.011113371228900661,0.16550294489130127,0.022694926177437253,-0.019195556640625,-0.0474395751953125,-1.13018798828125,44.53038024902344,28.409805297851562,-71.53460693359375,,,,,,,,,,
0,2018-10-30 16:41:11.7400,00:32,60,0,2018-10-30 16:41:14.3270,1540932074.3268042,0.18493496610117346,0.138001012946271,-0.061984275423267246,-0.0603179931640625,-0.0281219482421875,-1.09637451171875,44.26753234863281,28.539016723632812,-71.70024108886719,,,,,,,,,,
0,2018-10-30 16:41:11.7400,00:32,60,0,2018-10-30 16:41:14.3440,1540932074.3435578,0.21951531390752532,0.19976637652793375,-0.17328603317705785,-0.08056640625,-0.0279083251953125,-0.9860076904296875,44.26753234863281,28.539016723632812,-71.70024108886719,,,,,,,,,,
0,2018-10-30 16:41:11.7400,00:32,60,0,2018-10-30 16:41:14.3600,1540932074.36025,0.13863431265349185,0.2127788479301699,-0.2578485883220169,-0.0804290771484375,-0.044952392578125,-0.927093505859375,44.07373046875,28.26556396484375,-72.11126708984375,,,,,,,,,,
0,2018-10-30 16:41:11.7400,00:32,60,0,2018-10-30 16:41:14.3770,1540932074.376768,0.03721341517611323,0.17830768972851127,-0.3199766744441484,-0.0769195556640625,-0.066131591796875,-0.915252685546875,43.74333190917969,28.097152709960938,-72.36965942382812,,,,,,,,,,
0,2018-10-30 16:41:11.7400,00:32,60,0,2018-10-30 16:41:14.3930,1540932074.39346,-0.006539658372798577,0.11719586587835398,-0.35002565365573046,-0.0750885009765625,-0.0914764404296875,-0.9299163818359375,43.313079833984375,28.182891845703125,-72.07763671875,,,,,,,,,,
0,2018-10-30 16:41:11.7400,00:32,60,0,2018-10-30 16:41:14.4110,1540932074.411467,-0.00808375917282652,0.08975918138003064,-0.24725639771844474,-0.0093536376953125,-0.1085662841796875,-0.917205810546875,42.94010925292969,28.255966186523438,-72.32939147949219,,,,,,,,,,
0,2018-10-30 16:41:11.7400,00:32,60,0,2018-10-30 16:41:14.4270,1540932074.4269109,-0.00808375917282652,0.08975918138003064,-0.24725639771844474,-0.0093536376953125,-0.1085662841796875,-0.917205810546875,42.69146728515625,28.304672241210938,-72.49720764160156,,,,,,,,,,
0,2018-10-30 16:41:11.7400,00:32,60,0,2018-10-30 16:41:14.4430,1540932074.443491,-0.05457562758677581,0.10278203911051811,-0.14656813585694692,0.017425537109375,-0.10296630859375,-0.89324951171875,42.69146728515625,28.304672241210938,-72.49720764160156,,,,,,,,,,
0,2018-10-30 16:41:11.7400,00:32,60,0,2018-10-30 16:41:14.4600,1540932074.460233,-0.21522709192027975,-0.025824673090498372,-0.057806574621259946,-0.00299072265625,-0.0919952392578125,-0.8932342529296875,42.54985046386719,28.099960327148438,-72.35643005371094,,,,,,,,,,
0,2018-10-30 16:41:11.7400,00:32,60,0,2018-10-30 16:41:14.4780,1540932074.478376,-0.21522709192027975,-0.025824673090498372,-0.057806574621259946,-0.00299072265625,-0.0919952392578125,-0.8932342529296875,42.45263671875,27.963226318359375,-72.60099792480469,,,,,,,,,,
0,2018-10-30 16:41:11.7400,00:32,60,0,2018-10-30 16:41:14.4940,1540932074.49446,-0.24719381343282787,-0.05269516954107086,-0.023564448273348124,-0.0218505859375,-0.082763671875,-0.898162841796875,42.05320739746094,28.19744873046875,-72.614013671875,,,,,,,,,,
0,2018-10-30 16:41:11.7400,00:32,60,0,2018-10-30 16:41:14.5100,1540932074.5104551,-0.021629928057514566,0.05958902833884998,0.026850256426287886,-0.0486602783203125,-0.06903076171875,-0.9708251953125,41.639617919921875,28.51220703125,-72.62478637695312,,,,,,,,,,
0,2018-10-30 16:41:11.7400,00:32,60,0,2018-10-30 16:41:14.5270,1540932074.527014,-0.021629928057514566,0.05958902833884998,0.026850256426287886,-0.0486602783203125,-0.06903076171875,-0.9708251953125,41.49980163574219,28.616912841796875,-72.86265563964844,,,,,,,,,,
0,2018-10-30 16:41:11.7400,00:32,60,0,2018-10-30 16:41:14.5440,1540932074.5436358,0.20904030239191668,0.15877207155223502,0.09545222084229303,-0.0529937744140625,-0.1052398681640625,-1.0010223388671875,41.49980163574219,28.616912841796875,-72.86265563964844,,,,,,,,,,
0,2018-10-30 16:41:11.7400,00:32,60,0,2018-10-30 16:41:14.5600,1540932074.560347,0.20669831852930098,0.12861230483930566,0.06971489943554926,-0.0645599365234375,-0.1119842529296875,-1.0035858154296875,41.41365051269531,28.090118408203125,-72.886962890625,,,,,,,,,,
0,2018-10-30 16:41:11.7400,00:32,60,0,2018-10-30 16:41:14.5770,1540932074.576855,0.20669831852930098,0.12861230483930566,0.06971489943554926,-0.0645599365234375,-0.1119842529296875,-1.0035858154296875,41.545806884765625,27.675384521484375,-72.9732666015625,,,,,,,,,,
0,2018-10-30 16:41:11.7400,00:32,60,0,2018-10-30 16:41:14.5940,1540932074.593833,0.21845937053530892,-0.10353251790570245,-0.05907770140955476,-0.081451416015625,-0.129119873046875,-1.0283660888671875,41.14790344238281,27.209365844726562,-73.32449340820312,,,,,,,,,,
0,2018-10-30 16:41:11.7400,00:32,60,0,2018-10-30 16:41:14.6100,1540932074.6104841,0.2661134424489688,-0.09086066480688741,-0.0965537042691498,-0.06890869140625,-0.1450347900390625,-1.0045318603515625,40.88441467285156,27.3385009765625,-73.56820678710938,,,,,,,,,,
0,2018-10-30 16:41:11.7400,00:32,60,0,2018-10-30 16:41:14.6270,1540932074.6269522,0.2661134424489688,-0.09086066480688741,-0.0965537042691498,-0.06890869140625,-0.1450347900390625,-1.0045318603515625,40.50770568847656,27.101959228515625,-73.67555236816406,,,,,,,,,,
0,2018-10-30 16:41:11.7400,00:32,60,0,2018-10-30 16:41:14.6440,1540932074.6436381,0.32172184390647734,0.11067804542649405,-0.04920056955866889,-0.030303955078125,-0.2054901123046875,-0.967071533203125,40.42401123046875,26.8846435546875,-74.00044250488281,,,,,,,,,,
0,2018-10-30 16:41:11.7400,00:32,60,0,2018-10-30 16:41:14.6600,1540932074.660403,0.21211545450263117,0.1309462992186511,0.01403166315140949,-0.0065460205078125,-0.219268798828125,-0.9646148681640625,40.42401123046875,26.8846435546875,-74.00044250488281,,,,,,,,,,
0,2018-10-30 16:41:11.7400,00:32,60,0,2018-10-30 16:41:14.6770,1540932074.676934,0.02129863081790871,0.033128392380040686,0.04929537809347571,0.004638671875,-0.222503662109375,-0.9849853515625,40.33528137207031,26.357589721679688,-74.33714294433594,,,,,,,,,,
0,2018-10-30 16:41:11.7400,00:32,60,0,2018-10-30 16:41:14.6950,1540932074.6949039,-0.2097271316370481,-0.08050629448865934,0.07919495396790432,0.0180816650390625,-0.211517333984375,-0.998016357421875,40.0872802734375,26.4063720703125,-74.42686462402344,,,,,,,,,,
0,2018-10-30 16:41:11.7400,00:32,60,0,2018-10-30 16:41:14.7100,1540932074.7104511,-0.2097271316370481,-0.08050629448865934,0.07919495396790432,0.0180816650390625,-0.211517333984375,-0.998016357421875,39.834228515625,26.1453857421875,-74.52841186523438,,,,,,,,,,
0,2018-10-30 16:41:11.7400,00:32,60,0,2018-10-30 16:41:14.7270,1540932074.727013,-0.518160068020139,-0.12107582527049042,0.14561259365782647,0.006988525390625,-0.16729736328125,-1.04931640625,39.642822265625,26.57257080078125,-74.13261413574219,,,,,,,,,,
0,2018-10-30 16:41:11.7400,00:32,60,0,2018-10-30 16:41:14.7440,1540932074.743729,-0.538761749580774,0.03920439440705647,0.14474440314246065,-0.0121917724609375,-0.1408538818359375,-1.07476806640625,39.430877685546875,26.770370483398438,-73.90260314941406,,,,,,,,,,
0,2018-10-30 16:41:11.7400,00:32,60,0,2018-10-30 16:41:14.7600,1540932074.760386,-0.538761749580774,0.03920439440705647,0.14474440314246065,-0.0121917724609375,-0.1408538818359375,-1.07476806640625,39.430877685546875,26.770370483398438,-73.90260314941406,,,,,,,,,,
0,2018-10-30 16:41:11.7400,00:32,60,0,2018-10-30 16:41:14.7770,1540932074.777093,-0.5126835435545001,0.33963293381780524,0.14725043772822521,0.0373077392578125,-0.0833282470703125,-1.1494903564453125,39.217620849609375,26.968063354492188,-73.82878112792969,,,,,,,,,,
0,2018-10-30 16:41:11.7400,00:32,60,0,2018-10-30 16:41:14.7940,1540932074.793977,-0.42764588047107094,0.29032850097662327,0.10112209080307173,0.0582122802734375,-0.055877685546875,-1.205474853515625,39.45011901855469,26.999649047851562,-73.89300537109375,,,,,,,,,,
0,2018-10-30 16:41:11.7400,00:32,60,0,2018-10-30 16:41:14.8130,1540932074.813443,-0.2859372146551916,0.20492838166883431,0.019597137197457083,0.0724029541015625,-0.0248565673828125,-1.212982177734375,39.49713134765625,27.06787109375,-73.96598815917969,,,,,,,,,,
0,2018-10-30 16:41:11.7400,00:32,60,0,2018-10-30 16:41:14.8290,1540932074.828685,-0.09138424227719699,0.13519377484121847,-0.049070873613582026,0.0860595703125,-0.017852783203125,-1.197174072265625,39.40818786621094,27.241180419921875,-73.80824279785156,,,,,,,,,,
0,2018-10-30 16:41:11.7400,00:32,60,0,2018-10-30 16:41:14.8460,1540932074.845568,0.10261931996791428,0.12908661382944878,-0.06947148651191602,0.087738037109375,-0.0395965576171875,-1.1542205810546875,39.32646179199219,27.024063110351562,-73.89881896972656,,,,,,,,,,
0,2018-10-30 16:41:11.7400,00:32,60,0,2018-10-30 16:41:14.8620,1540932074.8622441,0.23372727306473318,0.17632496629694727,-0.025539448537750885,0.091461181640625,-0.0608673095703125,-1.085601806640625,39.19267272949219,26.428970336914062,-73.92826843261719,,,,,,,,,,
0,2018-10-30 16:41:11.7400,00:32,60,0,2018-10-30 16:41:14.8790,1540932074.87882,0.27609363863404074,0.2124060053775588,0.046242596535917876,0.0921783447265625,-0.0684661865234375,-1.019989013671875,39.19267272949219,26.428970336914062,-73.92826843261719,,,,,,,,,,
0,2018-10-30 16:41:11.7400,00:32,60,0,2018-10-30 16:41:14.8960,1540932074.8957229,0.25248657978325134,0.17787971974133554,0.08154412836546322,0.0796966552734375,-0.06951904296875,-0.9743194580078125,39.37052917480469,26.082321166992188,-74.24374389648438,,,,,,,,,,
0,2018-10-30 16:41:11.7400,00:32,60,0,2018-10-30 16:41:14.9120,1540932074.912003,0.17795055982633165,0.09968478276275597,0.0696861372957764,0.0494232177734375,-0.0782470703125,-0.942596435546875,39.06982421875,25.7530517578125,-74.35041809082031,,,,,,,,,,
0,2018-10-30 16:41:11.7400,00:32,60,0,2018-10-30 16:41:14.9290,1540932074.928622,0.060465208337486046,0.055354868521733,0.07715577152123065,0.0416717529296875,-0.094207763671875,-0.9095916748046875,39.049285888671875,25.523696899414062,-74.51618957519531,,,,,,,,,,
0,2018-10-30 16:41:11.7400,00:32,60,0,2018-10-30 16:41:14.9460,1540932074.945623,-0.05797781587935204,0.028215659117171513,0.11570183250681952,0.0429229736328125,-0.106201171875,-0.904022216796875,38.80503845214844,25.882080078125,-74.75030517578125,,,,,,,,,,
0,2018-10-30 16:41:11.7400,00:32,60,0,2018-10-30 16:41:14.9620,1540932074.962323,-0.13938851987420228,0.014773353514996559,0.15639759712432036,0.045379638671875,-0.1016845703125,-0.9192962646484375,38.678924560546875,25.597015380859375,-74.45555114746094,,,,,,,,,,
0,2018-10-30 16:41:11.7400,00:32,60,0,2018-10-30 16:41:14.9790,1540932074.978827,-0.14819319675411327,-0.01237943801112433,0.20562586355832607,0.0458526611328125,-0.092498779296875,-0.94781494140625,38.678924560546875,25.597015380859375,-74.45555114746094,,,,,,,,,,
0,2018-10-30 16:41:11.7400,00:32,60,0,2018-10-30 16:41:14.9950,1540932074.9953299,-0.09144869077557691,-0.020705278527039052,0.2580741580663466,0.0462188720703125,-0.086822509765625,-0.9538726806640625,38.825286865234375,25.101776123046875,-74.54409790039062,,,,,,,,,,
0,2018-10-30 16:41:11.7400,00:32,60,0,2018-10-30 16:41:15.0120,1540932075.01211,-0.021025656806175585,-0.0377167526221382,0.28587862511120987,0.0363311767578125,-0.0924835205078125,-0.94720458984375,38.66685485839844,24.977294921875,-74.71347045898438,,,,,,,,,,
0,2018-10-30 16:41:11.7400,00:32,60,0,2018-10-30 16:41:15.0290,1540932075.028785,0.01049525153989327,-0.05628670858715172,0.25586400067768983,0.003143310546875,-0.1012420654296875,-0.934783935546875,38.41642761230469,24.716567993164062,-74.50262451171875,,,,,,,,,,
0,2018-10-30 16:41:11.7400,00:32,60,0,2018-10-30 16:41:15.0460,1540932075.0455542,0.003997404796208937,-0.08735967323786925,0.1980007007252112,-0.0113677978515625,-0.0960693359375,-0.925323486328125,38.24446105957031,24.67266845703125,-74.5916748046875,,,,,,,,,,
0,2018-10-30 16:41:11.7400,00:32,60,0,2018-10-30 16:41:15.0610,1540932075.0612311,-0.009000685536140801,-0.13994245738093877,0.12512036801799375,-0.0156707763671875,-0.0898284912109375,-0.9376983642578125,38.05699157714844,24.709091186523438,-74.83468627929688,,,,,,,,,,
0,2018-10-30 16:41:11.7400,00:32,60,0,2018-10-30 16:41:15.0770,1540932075.077184,0.03339976849511976,-0.2513225120707777,0.016815731754978327,-0.0291900634765625,-0.0984344482421875,-0.9661712646484375,38.05699157714844,24.709091186523438,-74.83468627929688,,,,,,,,,,
0,2018-10-30 16:41:11.7400,00:32,60,0,2018-10-30 16:41:15.0940,1540932075.0939078,0.058076885471902984,-0.3441022507591762,-0.10217031100812692,-0.0475921630859375,-0.1243438720703125,-0.9603424072265625,37.69706726074219,24.392303466796875,-74.63188171386719,,,,,,,,,,
0,2018-10-30 16:41:11.7400,00:32,60,0,2018-10-30 16:41:15.1110,1540932075.110529,0.02754241199359948,-0.35542840855917424,-0.17178294505781713,-0.044342041015625,-0.148162841796875,-0.9424896240234375,37.37828063964844,24.143142700195312,-75.20489501953125,,,,,,,,,,
0,2018-10-30 16:41:11.7400,00:32,60,0,2018-10-30 16:41:15.1270,1540932075.127383,0.07831025185378,-0.22830720761420392,-0.16628405003902152,-0.03369140625,-0.1782379150390625,-0.94873046875,37.08149719238281,23.81427001953125,-74.84300231933594,,,,,,,,,,
0,2018-10-30 16:41:11.7400,00:32,60,0,2018-10-30 16:41:15.1440,1540932075.144032,0.18780212533075277,-0.012203136746961085,-0.10393385628197739,-0.028045654296875,-0.188140869140625,-0.97503662109375,36.64735412597656,23.899627685546875,-75.01957702636719,,,,,,,,,,
0,2018-10-30 16:41:11.7400,00:32,60,0,2018-10-30 16:41:15.1610,1540932075.160614,0.2993507581175937,0.19528401009722138,-0.055515989767682794,-0.00946044921875,-0.16693115234375,-0.9899139404296875,36.63331604003906,23.27972412109375,-75.51174926757812,,,,,,,,,,
0,2018-10-30 16:41:11.7400,00:32,60,0,2018-10-30 16:41:15.1770,1540932075.177244,0.3615603369690817,0.1989447913316443,-0.038392662906800316,-0.002410888671875,-0.1609039306640625,-1.0414276123046875,36.63331604003906,23.27972412109375,-75.51174926757812,,,,,,,,,,
0,2018-10-30 16:41:11.7400,00:32,60,0,2018-10-30 16:41:15.1950,1540932075.1952739,0.10742179836165416,-0.00975249591187017,0.017095896301654662,0.0182952880859375,-0.1399383544921875,-1.0264892578125,36.7320556640625,22.716217041015625,-75.60542297363281,,,,,,,,,,
0,2018-10-30 16:41:11.7400,00:32,60,0,2018-10-30 16:41:15.2120,1540932075.211707,0.10742179836165416,-0.00975249591187017,0.017095896301654662,0.0182952880859375,-0.1399383544921875,-1.0264892578125,36.77397155761719,22.47467041015625,-75.690185546875,,,,,,,,,,
0,2018-10-30 16:41:11.7400,00:32,60,0,2018-10-30 16:41:15.2270,1540932075.2273269,-0.06460988594197636,-0.015852466388696664,0.062105981885083865,0.0184326171875,-0.113311767578125,-1.0239105224609375,36.50738525390625,22.29425048828125,-75.71141052246094,,,,,,,,,,
0,2018-10-30 16:41:11.7400,00:32,60,0,2018-10-30 16:41:15.2440,1540932075.244061,-0.2191512597865115,0.0013132047335180723,-0.07276421888368999,-0.049285888671875,-0.0481719970703125,-1.126800537109375,36.473297119140625,22.145416259765625,-75.79685974121094,,,,,,,,,,
0,2018-10-30 16:41:11.7400,00:32,60,0,2018-10-30 16:41:15.2610,1540932075.2607079,-0.2191512597865115,0.0013132047335180723,-0.07276421888368999,-0.049285888671875,-0.0481719970703125,-1.126800537109375,36.10423278808594,22.2188720703125,-75.58003234863281,,,,,,,,,,
0,2018-10-30 16:41:11.7400,00:32,60,0,2018-10-30 16:41:15.2770,1540932075.277375,-0.19262511006488625,-0.14403760018915363,-0.3031851774550898,-0.0883941650390625,-0.0393524169921875,-1.1909942626953125,35.59600830078125,22.397109985351562,-75.52297973632812,,,,,,,,,,
0,2018-10-30 16:41:11.7400,00:32,60,0,2018-10-30 16:41:15.2940,1540932075.294162,-0.124389330298767,-0.6895986663490089,-0.6304874091097191,-0.059173583984375,-0.0663909912109375,-1.2219390869140625,35.59600830078125,22.397109985351562,-75.52297973632812,,,,,,,,,,
0,2018-10-30 16:41:11.7400,00:32,60,0,2018-10-30 16:41:15.3110,1540932075.3106852,-0.124389330298767,-0.6895986663490089,-0.6304874091097191,-0.059173583984375,-0.0663909912109375,-1.2219390869140625,34.90440368652344,21.91180419921875,-75.73478698730469,,,,,,,,,,
0,2018-10-30 16:41:11.7400,00:32,60,0,2018-10-30 16:41:15.3270,1540932075.3273659,-0.061002900561573044,-0.5690368311689038,-0.6378499842593522,-0.0735931396484375,-0.0997467041015625,-1.0649566650390625,34.08062744140625,21.841201782226562,-75.86027526855469,,,,,,,,,,
0,2018-10-30 16:41:11.7400,00:32,60,0,2018-10-30 16:41:15.3440,1540932075.344123,-0.015457785915146922,-0.317643212697021,-0.5915037907570303,-0.099884033203125,-0.10943603515625,-1.0129547119140625,33.425079345703125,21.504898071289062,-75.75234985351562,,,,,,,,,,
0,2018-10-30 16:41:11.7400,00:32,60,0,2018-10-30 16:41:15.3610,1540932075.3607512,-0.015457785915146922,-0.317643212697021,-0.5915037907570303,-0.099884033203125,-0.10943603515625,-1.0129547119140625,33.00901794433594,21.510162353515625,-75.46255493164062,,,,,,,,,,
0,2018-10-30 16:41:11.7400,00:32,60,0,2018-10-30 16:41:15.3770,1540932075.3772469,0.1139566630444906,0.3605944084417099,-0.3775968277891028,-0.10650634765625,-0.09881591796875,-0.9346160888671875,32.9285888671875,21.293167114257812,-75.39695739746094,,,,,,,,,,
0,2018-10-30 16:41:11.7400,00:32,60,0,2018-10-30 16:41:15.3940,1540932075.394017,0.1139566630444906,0.3605944084417099,-0.3775968277891028,-0.10650634765625,-0.09881591796875,-0.9346160888671875,32.9285888671875,21.293167114257812,-75.39695739746094,,,,,,,,,,
0,2018-10-30 16:41:11.7400,00:32,60,0,2018-10-30 16:41:15.4110,1540932075.4107451,0.11952693078050033,0.6337939899191616,-0.27874188602201555,-0.0958709716796875,-0.0903778076171875,-0.9323577880859375,33.35182189941406,20.897476196289062,-75.93505859375,,,,,,,,,,
0,2018-10-30 16:41:11.7400,00:32,60,0,2018-10-30 16:41:15.4280,1540932075.42845,0.064463145765913,0.7654734573859114,-0.07724418846942128,0.0008087158203125,-0.053558349609375,-1.0153350830078125,33.73832702636719,20.743850708007812,-75.76364135742188,,,,,,,,,,
0,2018-10-30 16:41:11.7400,00:32,60,0,2018-10-30 16:41:15.4440,1540932075.44416,0.064463145765913,0.7654734573859114,-0.07724418846942128,0.0008087158203125,-0.053558349609375,-1.0153350830078125,34.18605041503906,20.57794189453125,-75.66741943359375,,,,,,,,,,
0,2018-10-30 16:41:11.7400,00:32,60,0,2018-10-30 16:41:15.4610,1540932075.460734,-0.005131645104473684,0.10211038988360013,-0.09732122729531065,0.054229736328125,-0.031707763671875,-1.081298828125,34.048797607421875,20.68292236328125,-75.5928955078125,,,,,,,,,,
0,2018-10-30 16:41:11.7400,00:32,60,0,2018-10-30 16:41:15.4770,1540932075.477449,0.0024588966344701608,-0.22853224472631561,-0.19839191908934384,0.0445556640625,-0.032958984375,-1.0324554443359375,33.97999572753906,20.38519287109375,-75.84190368652344,,,,,,,,,,
0,2018-10-30 16:41:11.7400,00:32,60,0,2018-10-30 16:41:15.4960,1540932075.496046,0.0016247945810573432,-0.335256561198478,-0.28526316858329254,0.0301666259765625,-0.047760009765625,-0.9434967041015625,33.509918212890625,20.01226806640625,-75.72525024414062,,,,,,,,,,
0,2018-10-30 16:41:11.7400,00:32,60,0,2018-10-30 16:41:15.5110,1540932075.5114908,-0.005456817073572359,-0.30701533573484174,-0.29807696816820883,0.026092529296875,-0.096282958984375,-0.883331298828125,33.509918212890625,20.01226806640625,-75.72525024414062,,,,,,,,,,
0,2018-10-30 16:41:11.7400,00:32,60,0,2018-10-30 16:41:15.5280,1540932075.527617,0.004202468200145038,-0.2717233912852207,-0.22093371350410154,0.049224853515625,-0.14715576171875,-0.870330810546875,33.086212158203125,19.707489013671875,-75.7596435546875,,,,,,,,,,
0,2018-10-30 16:41:11.7400,00:32,60,0,2018-10-30 16:41:15.5440,1540932075.54405,0.004202468200145038,-0.2717233912852207,-0.22093371350410154,0.049224853515625,-0.14715576171875,-0.870330810546875,32.8189697265625,19.527008056640625,-75.85897827148438,,,,,,,,,,
0,2018-10-30 16:41:11.7400,00:32,60,0,2018-10-30 16:41:15.5610,1540932075.560816,0.06182634997062555,-0.2484790549749001,0.04893824819129608,0.0299835205078125,-0.2112274169921875,-0.88287353515625,32.67671203613281,19.322219848632812,-75.79627990722656,,,,,,,,,,
0,2018-10-30 16:41:11.7400,00:32,60,0,2018-10-30 16:41:15.5780,1540932075.577553,0.1372689099626082,-0.17587222891163382,0.10362359801498316,-0.0192108154296875,-0.196441650390625,-0.9046630859375,32.34698486328125,19.153884887695312,-75.97657775878906,,,,,,,,,,
0,2018-10-30 16:41:11.7400,00:32,60,0,2018-10-30 16:41:15.5940,1540932075.5942678,0.20119835824606935,-0.12107529263827241,0.04156581934562972,-0.055999755859375,-0.1752471923828125,-0.935302734375,32.21888732910156,18.868606567382812,-75.91612243652344,,,,,,,,,,
0,2018-10-30 16:41:11.7400,00:32,60,0,2018-10-30 16:41:15.6110,1540932075.610858,0.1929920936630992,-0.1131467957569975,-0.02802843889253894,-0.0512237548828125,-0.1646728515625,-0.9535980224609375,32.21888732910156,18.868606567382812,-75.91612243652344,,,,,,,,,,
0,2018-10-30 16:41:11.7400,00:32,60,0,2018-10-30 16:41:15.6280,1540932075.627661,0.17712737673338816,-0.1279656893266344,-0.07087736925136885,-0.04486083984375,-0.1792755126953125,-0.9781494140625,32.427093505859375,18.361190795898438,-76.00173950195312,,,,,,,,,,
0,2018-10-30 16:41:11.7400,00:32,60,0,2018-10-30 16:41:15.6440,1540932075.644314,0.18066591887377642,-0.09331103932586933,-0.09011098496003012,-0.0330963134765625,-0.183135986328125,-0.987396240234375,32.20372009277344,17.939346313476562,-75.9515380859375,,,,,,,,,,
0,2018-10-30 16:41:11.7400,00:32,60,0,2018-10-30 16:41:15.6610,1540932075.660907,0.23020763936808447,0.012254003123781599,-0.1007013113508392,-0.028076171875,-0.1882476806640625,-0.9934844970703125,32.07371520996094,17.65386962890625,-76.12535095214844,,,,,,,,,,
0,2018-10-30 16:41:11.7400,00:32,60,0,2018-10-30 16:41:15.6780,1540932075.677548,0.2977371488131147,0.1326432654652496,-0.07486838246096159,-0.009735107421875,-0.195892333984375,-1.0114593505859375,32.1014404296875,17.492828369140625,-76.20790100097656,,,,,,,,,,
0,2018-10-30 16:41:11.7400,00:32,60,0,2018-10-30 16:41:15.6940,1540932075.694289,0.32052315509983265,0.21011621947230869,-0.028731247104210853,0.012969970703125,-0.1986083984375,-1.0276641845703125,32.18922424316406,17.0101318359375,-75.90887451171875,,,,,,,,,,
0,2018-10-30 16:41:11.7400,00:32,60,0,2018-10-30 16:41:15.7120,1540932075.711845,0.2633056717116983,0.19740335369270642,0.04194372190431197,0.0344696044921875,-0.204071044921875,-1.0450897216796875,32.18922424316406,17.0101318359375,-75.90887451171875,,,,,,,,,,
0,2018-10-30 16:41:11.7400,00:32,60,0,2018-10-30 16:41:15.7280,1540932075.7275949,0.1871752172101481,0.07573657297632742,0.08571730179361739,0.03082275390625,-0.203369140625,-1.074798583984375,32.39935302734375,16.502883911132812,-75.76020812988281,,,,,,,,,,
0,2018-10-30 16:41:11.7400,00:32,60,0,2018-10-30 16:41:15.7440,1540932075.744226,0.11668320736851373,-0.019815782722952587,0.07704951139373649,0.003387451171875,-0.1959228515625,-1.081817626953125,32.30082702636719,16.366012573242188,-76.16094970703125,,,,,,,,,,
0,2018-10-30 16:41:11.7400,00:32,60,0,2018-10-30 16:41:15.7610,1540932075.761405,0.018641328682227645,0.08827313749176643,0.06007265839280837,-0.02056884765625,-0.1856536865234375,-1.052581787109375,32.51472473144531,16.168380737304688,-76.15667724609375,,,,,,,,,,
0,2018-10-30 16:41:11.7400,00:32,60,0,2018-10-30 16:41:15.7930,1540932075.792584,-0.1297300335488119,0.35655918675802184,0.13432878011916075,0.01092529296875,-0.191650390625,-1.072296142578125,32.65388488769531,16.0635986328125,-75.99690246582031,,,,,,,,,,
0,2018-10-30 16:41:11.7400,00:32,60,0,2018-10-30 16:41:15.8090,1540932075.8091478,-0.20533211689009034,0.40461433073184766,0.19972882595656363,0.072601318359375,-0.157623291015625,-1.1017608642578125,32.65388488769531,16.0635986328125,-75.99690246582031,,,,,,,,,,
0,2018-10-30 16:41:11.7400,00:32,60,0,2018-10-30 16:41:15.8260,1540932075.825836,-0.2306326798780611,0.31262049088113153,0.27458176208320273,0.106689453125,-0.1478424072265625,-1.150604248046875,33.039764404296875,15.909912109375,-75.903564453125,,,,,,,,,,
0,2018-10-30 16:41:11.7400,00:32,60,0,2018-10-30 16:41:15.8420,1540932075.8424501,-0.277177811513812,0.1017292915316098,0.38034813951126367,0.136016845703125,-0.131195068359375,-1.161468505859375,33.34893798828125,15.848861694335938,-75.88902282714844,,,,,,,,,,
0,2018-10-30 16:41:11.7400,00:32,60,0,2018-10-30 16:41:15.8590,1540932075.859088,-0.3819236656121545,-0.12917955815149254,0.49252900674088945,0.1321868896484375,-0.0993804931640625,-1.1206817626953125,33.50605773925781,15.97320556640625,-75.8758544921875,,,,,,,,,,
0,2018-10-30 16:41:11.7400,00:32,60,0,2018-10-30 16:41:15.8760,1540932075.875783,-0.4551787050847461,-0.27690110907655274,0.5534035429379207,0.077972412109375,-0.0625762939453125,-1.074920654296875,33.34107971191406,16.239227294921875,-75.71878051757812,,,,,,,,,,
0,2018-10-30 16:41:11.7400,00:32,60,0,2018-10-30 16:41:15.8920,1540932075.892421,-0.42677289626574294,-0.28897721303951707,0.529822849381923,0.0213165283203125,-0.0134124755859375,-1.044525146484375,33.07106018066406,16.758880615234375,-75.63607788085938,,,,,,,,,,
0,2018-10-30 16:41:11.7400,00:32,60,0,2018-10-30 16:41:15.9090,1540932075.9093041,-0.30302671937023007,-0.15151762074285918,0.4796321165299627,-0.0207366943359375,0.0102691650390625,-1.01568603515625,33.07106018066406,16.758880615234375,-75.63607788085938,,,,,,,,,,
0,2018-10-30 16:41:11.7400,00:32,60,0,2018-10-30 16:41:15.9260,1540932075.926419,-0.11947979282920594,0.05688272403911146,0.39738864206224467,-0.051666259765625,0.0199127197265625,-0.9991912841796875,33.135498046875,16.746917724609375,-75.32080078125,,,,,,,,,,
0,2018-10-30 16:41:11.7400,00:32,60,0,2018-10-30 16:41:15.9430,1540932075.943423,0.03404052505339282,0.20194910335736269,0.2668854928489828,-0.072265625,0.007537841796875,-0.9860992431640625,33.194244384765625,16.425140380859375,-75.09541320800781,,,,,,,,,,
0,2018-10-30 16:41:11.7400,00:32,60,0,2018-10-30 16:41:15.9600,1540932075.960011,0.0438771768557095,0.2152324182424599,0.16730936705870203,-0.06707763671875,-0.04010009765625,-0.96624755859375,33.42413330078125,16.456466674804688,-75.47203063964844,,,,,,,,,,
0,2018-10-30 16:41:11.7400,00:32,60,0,2018-10-30 16:41:15.9770,1540932075.977164,-0.07849720576230357,0.21521830348868248,0.19411035500482346,-0.02752685546875,-0.0810394287109375,-0.9246368408203125,33.517608642578125,16.283615112304688,-75.08308410644531,,,,,,,,,,
0,2018-10-30 16:41:11.7400,00:32,60,0,2018-10-30 16:41:15.9940,1540932075.993781,-0.20941580810561783,0.20977533485277855,0.2466073853607924,0.00030517578125,-0.089874267578125,-0.9167022705078125,33.59739685058594,16.500534057617188,-75.22677612304688,,,,,,,,,,
0,2018-10-30 16:41:11.7400,00:32,60,0,2018-10-30 16:41:16.0100,1540932076.01049,-0.22456733049540564,0.16776370234066953,0.24013403969913683,0.0015869140625,-0.0767364501953125,-0.9445037841796875,33.78355407714844,16.463958740234375,-75.13995361328125,,,,,,,,,,
0,2018-10-30 16:41:11.7400,00:32,60,0,2018-10-30 16:41:16.0280,1540932076.027676,-0.148554055081819,0.056898436689542926,0.19286106613746729,0.001434326171875,-0.075042724609375,-0.968536376953125,33.78355407714844,16.463958740234375,-75.13995361328125,,,,,,,,,,
0,2018-10-30 16:41:11.7400,00:32,60,0,2018-10-30 16:41:16.0440,1540932076.044456,-0.0408457005868723,-0.050966245361391424,0.13059209879367056,-0.0008544921875,-0.087860107421875,-0.957977294921875,33.93690490722656,16.278671264648438,-74.98239135742188,,,,,,,,,,
0,2018-10-30 16:41:11.7400,00:32,60,0,2018-10-30 16:41:16.0620,1540932076.062154,0.0430808916897758,-0.10567662889932525,0.08659907443054261,-0.0095672607421875,-0.109771728515625,-0.920654296875,33.615478515625,16.42041015625,-74.76042175292969,,,,,,,,,,
0,2018-10-30 16:41:11.7400,00:32,60,0,2018-10-30 16:41:16.0790,1540932076.078918,0.07496931626627559,-0.07788228186660427,0.09197999141304772,-0.0101318359375,-0.14208984375,-0.8787384033203125,33.84098815917969,16.142059326171875,-75.07075500488281,,,,,,,,,,
0,2018-10-30 16:41:11.7400,00:32,60,0,2018-10-30 16:41:16.0940,1540932076.094472,0.09651961580719678,-0.025171665991210943,0.11238619694967088,-0.0045318603515625,-0.162811279296875,-0.8710174560546875,33.683868408203125,16.0177001953125,-75.08393859863281,,,,,,,,,,
0,2018-10-30 16:41:11.7400,00:32,60,0,2018-10-30 16:41:16.1110,1540932076.111082,0.09801657865593033,0.025568210677523743,0.1327947993312751,0.0034332275390625,-0.17059326171875,-0.8832855224609375,33.69805908203125,15.937210083007812,-75.08616638183594,,,,,,,,,,
0,2018-10-30 16:41:11.7400,00:32,60,0,2018-10-30 16:41:16.1280,1540932076.127723,0.09218505481698382,0.07859734061929054,0.13928678712056125,0.00958251953125,-0.1651153564453125,-0.9102935791015625,33.69805908203125,15.937210083007812,-75.08616638183594,,,,,,,,,,
0,2018-10-30 16:41:11.7400,00:32,60,0,2018-10-30 16:41:16.1460,1540932076.146192,0.12609934603470688,0.18252187583745266,0.03553322684438224,-0.0111541748046875,-0.1424102783203125,-0.989288330078125,33.8966064453125,15.510711669921875,-74.62287902832031,,,,,,,,,,
0,2018-10-30 16:41:11.7400,00:32,60,0,2018-10-30 16:41:16.1640,1540932076.164085,0.149730373335307,0.2170907720511172,-0.010476875728371722,-0.002227783203125,-0.1382293701171875,-1.0339202880859375,34.09111022949219,15.393081665039062,-75.24116516113281,,,,,,,,,,
0,2018-10-30 16:41:11.7400,00:32,60,0,2018-10-30 16:41:16.1790,1540932076.179315,0.1749643572960258,0.20290331397593808,-0.039413718868736694,0.01739501953125,-0.135284423828125,-1.084014892578125,34.13743591308594,15.461227416992188,-75.3922119140625,,,,,,,,,,
0,2018-10-30 16:41:11.7400,00:32,60,0,2018-10-30 16:41:16.1960,1540932076.195672,0.18941520200301376,0.16606700241018008,-0.05873814837056966,0.037353515625,-0.1266937255859375,-1.1157684326171875,34.36552429199219,15.183120727539062,-75.39015197753906,,,,,,,,,,
0,2018-10-30 16:41:11.7400,00:32,60,0,2018-10-30 16:41:16.2140,1540932076.213516,0.19520837632226312,0.10340228932839757,-0.089871833094141,0.0449981689453125,-0.1152496337890625,-1.1356658935546875,34.55364990234375,15.146743774414062,-75.06904602050781,,,,,,,,,,
0,2018-10-30 16:41:11.7400,00:32,60,0,2018-10-30 16:41:16.2290,1540932076.2288399,0.19887847862050131,0.027975708302955375,-0.17028038957079442,0.036712646484375,-0.1008148193359375,-1.1387481689453125,34.56278991699219,14.756500244140625,-75.08308410644531,,,,,,,,,,
0,2018-10-30 16:41:11.7400,00:32,60,0,2018-10-30 16:41:16.2450,1540932076.245456,0.18047603548805377,-0.04499011187525361,-0.2720978317344859,0.0300445556640625,-0.1032257080078125,-1.1297454833984375,34.56278991699219,14.756500244140625,-75.08308410644531,,,,,,,,,,
0,2018-10-30 16:41:11.7400,00:32,60,0,2018-10-30 16:41:16.2620,1540932076.261895,0.16523023719567717,-0.11055633896467743,-0.33856846833010057,0.025421142578125,-0.131011962890625,-1.1242218017578125,34.63114929199219,14.353775024414062,-75.40658569335938,,,,,,,,,,
0,2018-10-30 16:41:11.7400,00:32,60,0,2018-10-30 16:41:16.2790,1540932076.278729,0.11818629548775444,-0.18249551054266086,-0.3579213936555974,0.01483154296875,-0.1708221435546875,-1.115264892578125,34.5848388671875,14.285629272460938,-75.25553894042969,,,,,,,,,,
0,2018-10-30 16:41:11.7400,00:32,60,0,2018-10-30 16:41:16.2950,1540932076.29534,-0.00959084203370236,-0.19438545954542863,-0.3236377219946803,-0.0074462890625,-0.201873779296875,-1.086181640625,34.13273620605469,14.141845703125,-75.28547668457031,,,,,,,,,,
0,2018-10-30 16:41:11.7400,00:32,60,0,2018-10-30 16:41:16.3120,1540932076.312096,-0.19346240791160718,-0.21675015374769607,-0.2400938259666766,-0.0002593994140625,-0.1844940185546875,-1.062530517578125,34.20091247558594,14.43951416015625,-75.11456298828125,,,,,,,,,,
0,2018-10-30 16:41:11.7400,00:32,60,0,2018-10-30 16:41:16.3290,1540932076.3289552,-0.3000375873627252,-0.22544883681622188,-0.24329148348753477,-0.0394287109375,-0.14276123046875,-1.07354736328125,33.801513671875,14.67376708984375,-75.12757873535156,,,,,,,,,,
0,2018-10-30 16:41:11.7400,00:32,60,0,2018-10-30 16:41:16.3450,1540932076.345124,-0.26540850370842484,-0.1465881095651225,-0.3020999393108825,-0.0745849609375,-0.100616455078125,-1.0879974365234375,33.801513671875,14.67376708984375,-75.12757873535156,,,,,,,,,,
0,2018-10-30 16:41:11.7400,00:32,60,0,2018-10-30 16:41:16.3640,1540932076.363585,-0.1806651199254494,-0.007676828158262412,-0.3512086298119437,-0.0641021728515625,-0.0629730224609375,-1.0728759765625,33.81700134277344,14.593399047851562,-74.97358703613281,,,,,,,,,,
0,2018-10-30 16:41:11.7400,00:32,60,0,2018-10-30 16:41:16.3800,1540932076.38024,-0.09741230740459135,0.09538857129224014,-0.3585975702563685,-0.03668212890625,-0.05413818359375,-1.0599212646484375,33.92401123046875,14.339950561523438,-74.66497802734375,,,,,,,,,,
0,2018-10-30 16:41:11.7400,00:32,60,0,2018-10-30 16:41:16.3950,1540932076.395317,-0.038607047374551694,0.0805789987864185,-0.3125829403097614,-0.0046844482421875,-0.058929443359375,-1.0476226806640625,33.69398498535156,14.617889404296875,-74.90132141113281,,,,,,,,,,
0,2018-10-30 16:41:11.7400,00:32,60,0,2018-10-30 16:41:16.4120,1540932076.411946,-0.007972971671479223,-0.009728527462059457,-0.2527334548163017,0.0071563720703125,-0.0608673095703125,-1.0177459716796875,33.646331787109375,14.549606323242188,-74.90644836425781,,,,,,,,,,
0,2018-10-30 16:41:11.7400,00:32,60,0,2018-10-30 16:41:16.4280,1540932076.428022,0.010093646847509321,-0.0955118756507108,-0.2121508745451292,-0.00537109375,-0.066619873046875,-0.9814300537109375,33.54193115234375,14.803298950195312,-74.90269470214844,,,,,,,,,,
0,2018-10-30 16:41:11.7400,00:32,60,0,2018-10-30 16:41:16.4450,1540932076.444613,0.0070672305847432745,-0.06972555207990958,-0.16178783517064074,-0.0242767333984375,-0.0746612548828125,-0.9288330078125,33.54193115234375,14.803298950195312,-74.90269470214844,,,,,,,,,,
0,2018-10-30 16:41:11.7400,00:32,60,0,2018-10-30 16:41:16.4610,1540932076.4613528,0.0070672305847432745,-0.06972555207990958,-0.16178783517064074,-0.0242767333984375,-0.0746612548828125,-0.9288330078125,33.55805969238281,14.722991943359375,-74.67062377929688,,,,,,,,,,
0,2018-10-30 16:41:11.7400,00:32,60,0,2018-10-30 16:41:16.4780,1540932076.4780731,-0.08270420133630173,0.15255758514853512,-0.08438998230632189,-0.0244293212890625,-0.0783843994140625,-0.874847412109375,33.89057922363281,14.191192626953125,-74.67231750488281,,,,,,,,,,
0,2018-10-30 16:41:11.7400,00:32,60,0,2018-10-30 16:41:16.4950,1540932076.494777,-0.16063308852198238,0.171542994243601,-0.046867640443759476,0.0189971923828125,-0.06427001953125,-0.893585205078125,33.99940490722656,14.2471923828125,-74.74240112304688,,,,,,,,,,
0,2018-10-30 16:41:11.7400,00:32,60,0,2018-10-30 16:41:16.5130,1540932076.5127301,-0.16063308852198238,0.171542994243601,-0.046867640443759476,0.0189971923828125,-0.06427001953125,-0.893585205078125,33.914886474609375,14.730209350585938,-74.65093994140625,,,,,,,,,,
0,2018-10-30 16:41:11.7400,00:32,60,0,2018-10-30 16:41:16.5290,1540932076.5287251,-0.17669194989516018,-0.16393594090589866,0.036249617177613554,0.056396484375,-0.057281494140625,-0.96881103515625,33.81306457519531,14.984161376953125,-74.33479309082031,,,,,,,,,,
0,2018-10-30 16:41:11.7400,00:32,60,0,2018-10-30 16:41:16.5450,1540932076.544666,-0.13069329891509357,-0.31578991889443486,0.032838640453440066,0.0227813720703125,-0.0645904541015625,-0.9624176025390625,33.81306457519531,14.984161376953125,-74.33479309082031,,,,,,,,,,
0,2018-10-30 16:41:11.7400,00:32,60,0,2018-10-30 16:41:16.5610,1540932076.561343,-0.13069329891509357,-0.31578991889443486,0.032838640453440066,0.0227813720703125,-0.0645904541015625,-0.9624176025390625,33.6610107421875,15.169570922851562,-74.33616638183594,,,,,,,,,,
0,2018-10-30 16:41:11.7400,00:32,60,0,2018-10-30 16:41:16.5780,1540932076.577992,-0.01387533559542184,-0.13068158100629723,-0.015149924493133762,-0.03680419921875,-0.074188232421875,-0.879058837890625,33.44270324707031,15.0574951171875,-74.27413940429688,,,,,,,,,,
0,2018-10-30 16:41:11.7400,00:32,60,0,2018-10-30 16:41:16.5960,1540932076.5958982,0.08316892294652056,0.08697058540260867,-0.03953462638222629,-0.046295166015625,-0.091705322265625,-0.897796630859375,33.69853210449219,14.618331909179688,-74.35464477539062,,,,,,,,,,
0,2018-10-30 16:41:11.7400,00:32,60,0,2018-10-30 16:41:16.6110,1540932076.611412,0.17160957327085297,0.17707970614987573,-0.0651454476371913,-0.0370025634765625,-0.1138458251953125,-0.9464569091796875,33.73329162597656,14.767227172851562,-74.19108581542969,,,,,,,,,,
0,2018-10-30 16:41:11.7400,00:32,60,0,2018-10-30 16:41:16.6280,1540932076.628041,0.19046075904697887,0.16072603284402615,-0.07802049992717938,-0.020599365234375,-0.1269989013671875,-0.9752349853515625,33.719085693359375,14.84771728515625,-74.18885803222656,,,,,,,,,,
0,2018-10-30 16:41:11.7400,00:32,60,0,2018-10-30 16:41:16.6450,1540932076.64471,0.19800629336350037,0.06657929356808996,-0.08456362040939505,-0.0067901611328125,-0.1293792724609375,-1.0059661865234375,33.780914306640625,14.83551025390625,-74.18594360351562,,,,,,,,,,
0,2018-10-30 16:41:11.7400,00:32,60,0,2018-10-30 16:41:16.6610,1540932076.661469,0.2566933090411405,0.021794245096772455,-0.11568798406915111,-0.016387939453125,-0.1228179931640625,-1.0243377685546875,33.780914306640625,14.83551025390625,-74.18594360351562,,,,,,,,,,
0,2018-10-30 16:41:11.7400,00:32,60,0,2018-10-30 16:41:16.6780,1540932076.678005,0.3503921046217254,0.0937568524923486,-0.21414105482774543,-0.0355072021484375,-0.1168365478515625,-1.0171051025390625,34.113433837890625,14.3037109375,-74.18766784667969,,,,,,,,,,
0,2018-10-30 16:41:11.7400,00:32,60,0,2018-10-30 16:41:16.6950,1540932076.6947079,0.36427143495878234,0.20743681309957995,-0.2750432879001135,-0.0117034912109375,-0.1374359130859375,-1.005279541015625,34.259796142578125,13.808486938476562,-74.27619934082031,,,,,,,,,,
0,2018-10-30 16:41:11.7400,00:32,60,0,2018-10-30 16:41:16.7110,1540932076.71142,0.33114357521095966,0.28219733753639337,-0.2278251754568996,0.037567138671875,-0.1766815185546875,-1.0269012451171875,34.15667724609375,14.062332153320312,-74.11624145507812,,,,,,,,,,
0,2018-10-30 16:41:11.7400,00:32,60,0,2018-10-30 16:41:16.7280,1540932076.728118,0.3005252121583187,0.3089916675797896,-0.09285617141168379,0.081817626953125,-0.209136962890625,-1.067657470703125,34.079986572265625,14.154937744140625,-74.19500732421875,,,,,,,,,,
0,2018-10-30 16:41:11.7400,00:32,60,0,2018-10-30 16:41:16.7450,1540932076.744845,0.23396136492455116,0.22351511554871534,0.074108848918071,0.1204071044921875,-0.2143707275390625,-1.1035003662109375,34.477447509765625,13.920501708984375,-74.41630554199219,,,,,,,,,,
0,2018-10-30 16:41:11.7400,00:32,60,0,2018-10-30 16:41:16.7610,1540932076.7613912,0.12024651690703975,0.047837297396657326,0.1906434518977583,0.1213226318359375,-0.203277587890625,-1.1163787841796875,34.477447509765625,13.920501708984375,-74.41630554199219,,,,,,,,,,
0,2018-10-30 16:41:11.7400,00:32,60,0,2018-10-30 16:41:16.7780,1540932076.778091,0.014240454980871703,-0.11138191890260199,0.2300944550217561,0.1023406982421875,-0.1705474853515625,-1.106689453125,34.78350830078125,13.549880981445312,-74.17927551269531,,,,,,,,,,
0,2018-10-30 16:41:11.7400,00:32,60,0,2018-10-30 16:41:16.7950,1540932076.794703,-0.03658224599776445,-0.14423121200040237,0.18187739085365348,0.06964111328125,-0.1347808837890625,-1.0905303955078125,34.70176696777344,13.332763671875,-74.26986694335938,,,,,,,,,,
0,2018-10-30 16:41:11.7400,00:32,60,0,2018-10-30 16:41:16.8130,1540932076.8126001,0.007635815477475192,-0.06315793051566516,0.0877309178938263,0.0325164794921875,-0.1387176513671875,-1.0966949462890625,34.844696044921875,13.537612915039062,-74.25445556640625,,,,,,,,,,
0,2018-10-30 16:41:11.7400,00:32,60,0,2018-10-30 16:41:16.8290,1540932076.829217,0.031516114656106715,0.006934605162457329,0.08352818337757226,0.078582763671875,-0.145965576171875,-1.0912628173828125,34.646942138671875,13.654937744140625,-74.02668762207031,,,,,,,,,,
0,2018-10-30 16:41:11.7400,00:32,60,0,2018-10-30 16:41:16.8450,1540932076.844707,-0.03179734446721908,0.017015468836734268,0.14887842810259064,0.097381591796875,-0.1751861572265625,-1.0844879150390625,34.78923034667969,13.859710693359375,-74.08937072753906,,,,,,,,,,
0,2018-10-30 16:41:11.7400,00:32,60,0,2018-10-30 16:41:16.8620,1540932076.861525,-0.1488635144004862,-0.060345099772323475,0.300873553628901,0.111480712890625,-0.1947479248046875,-1.082275390625,34.78923034667969,13.859710693359375,-74.08937072753906,,,,,,,,,,
0,2018-10-30 16:41:11.7400,00:32,60,0,2018-10-30 16:41:16.8780,1540932076.878067,-0.3170804867586872,-0.07676881421484213,0.48401115231038,0.109375,-0.172760009765625,-1.04168701171875,34.5908203125,13.976974487304688,-73.939697265625,,,,,,,,,,
0,2018-10-30 16:41:11.7400,00:32,60,0,2018-10-30 16:41:16.8950,1540932076.894685,-0.45493049847115075,-0.01968608677786573,0.6051221313072594,0.095977783203125,-0.105133056640625,-1.0069732666015625,34.921844482421875,14.145416259765625,-73.60317993164062,,,,,,,,,,
0,2018-10-30 16:41:11.7400,00:32,60,0,2018-10-30 16:41:16.9110,1540932076.9114351,-0.4725664838418735,0.12001508820831186,0.6042278418132109,0.064453125,-0.0289306640625,-0.9991607666015625,35.154998779296875,14.17706298828125,-73.58932495117188,,,,,,,,,,
0,2018-10-30 16:41:11.7400,00:32,60,0,2018-10-30 16:41:16.9280,1540932076.928154,-0.3151499612844888,0.23895692249732178,0.5058173816320578,0.0460662841796875,0.0191802978515625,-1.0314483642578125,35.3951416015625,14.518661499023438,-73.329345703125,,,,,,,,,,
0,2018-10-30 16:41:11.7400,00:32,60,0,2018-10-30 16:41:16.9450,1540932076.944864,-0.1099637856221348,0.26790228775317504,0.3483870106370047,0.03533935546875,0.02484130859375,-1.042083740234375,35.5225830078125,14.803878784179688,-73.46792602539062,,,,,,,,,,
0,2018-10-30 16:41:11.7400,00:32,60,0,2018-10-30 16:41:16.9620,1540932076.9616308,0.017385115596037268,0.20355472317857146,0.1758682341699987,0.0214691162109375,-0.0142669677734375,-1.012451171875,35.72666931152344,14.996444702148438,-73.5277099609375,,,,,,,,,,
0,2018-10-30 16:41:11.7400,00:32,60,0,2018-10-30 16:41:16.9780,1540932076.978225,-0.010799650852489327,0.10039344992882605,0.07508676167034808,0.0181121826171875,-0.0743255615234375,-0.94818115234375,35.72666931152344,14.996444702148438,-73.5277099609375,,,,,,,,,,
0,2018-10-30 16:41:11.7400,00:32,60,0,2018-10-30 16:41:16.9950,1540932076.9949698,-0.11942919276849442,0.09712681653573485,0.0708254376101123,0.0200958251953125,-0.1260223388671875,-0.8853912353515625,36.064910888671875,14.774459838867188,-73.43952941894531,,,,,,,,,,
0,2018-10-30 16:41:11.7400,00:32,60,0,2018-10-30 16:41:17.0120,1540932077.0115418,-0.22426852382109877,0.17679927528709038,0.14376755565461957,0.0286102294921875,-0.152801513671875,-0.860595703125,36.113189697265625,14.842819213867188,-73.35627746582031,,,,,,,,,,
0,2018-10-30 16:41:11.7400,00:32,60,0,2018-10-30 16:41:17.0280,1540932077.0281,-0.27178251346142046,0.3108351076863424,0.2788729135476474,0.05755615234375,-0.15478515625,-0.8816070556640625,36.20063781738281,15.369766235351562,-73.17579650878906,,,,,,,,,,
0,2018-10-30 16:41:11.7400,00:32,60,0,2018-10-30 16:41:17.0430,1540932077.043291,-0.19658043691587193,0.38514049789286126,0.45028434763339853,0.088470458984375,-0.14599609375,-0.9564971923828125,36.545196533203125,15.457672119140625,-72.91958618164062,,,,,,,,,,
0,2018-10-30 16:41:11.7400,00:32,60,0,2018-10-30 16:41:17.0600,1540932077.0604758,-0.08026394682946213,0.33597055468672826,0.56584876102797,0.0939483642578125,-0.1227264404296875,-1.012939453125,36.966461181640625,15.452957153320312,-72.58462524414062,,,,,,,,,,
0,2018-10-30 16:41:11.7400,00:32,60,0,2018-10-30 16:41:17.0770,1540932077.0766602,0.02244645324773286,0.16403900524008472,0.5784622908989122,0.070465087890625,-0.0982818603515625,-1.032073974609375,36.966461181640625,15.452957153320312,-72.58462524414062,,,,,,,,,,
0,2018-10-30 16:41:11.7400,00:32,60,0,2018-10-30 16:41:17.0940,1540932077.093797,0.06217868618284303,-0.10753072165023841,0.5042282734096075,0.041259765625,-0.09197998046875,-1.0287017822265625,37.05409240722656,15.279495239257812,-72.89854431152344,,,,,,,,,,
0,2018-10-30 16:41:11.7400,00:32,60,0,2018-10-30 16:41:17.1120,1540932077.112358,0.03188496246708269,-0.3241764794832034,0.38724439515402387,0.004486083984375,-0.0887298583984375,-0.9852294921875,37.102386474609375,15.347824096679688,-72.8153076171875,,,,,,,,,,
0,2018-10-30 16:41:11.7400,00:32,60,0,2018-10-30 16:41:17.1290,1540932077.12908,0.13625903927725017,-0.2648372556546028,0.1741909753154668,-0.0497589111328125,-0.10174560546875,-0.951385498046875,36.88471984863281,15.235824584960938,-72.67521667480469,,,,,,,,,,
0,2018-10-30 16:41:11.7400,00:32,60,0,2018-10-30 16:41:17.1450,1540932077.14502,0.13625903927725017,-0.2648372556546028,0.1741909753154668,-0.0497589111328125,-0.10174560546875,-0.951385498046875,36.63609313964844,15.284530639648438,-72.84303283691406,,,,,,,,,,
0,2018-10-30 16:41:11.7400,00:32,60,0,2018-10-30 16:41:17.1610,1540932077.1605492,0.31443596779623856,-0.06293928499016967,0.10800369905983648,-0.0515899658203125,-0.1100921630859375,-0.9700469970703125,36.85829162597656,15.396987915039062,-72.43646240234375,,,,,,,,,,
0,2018-10-30 16:41:11.7400,00:32,60,0,2018-10-30 16:41:17.1770,1540932077.177268,0.4745356251518781,0.12929061196894884,0.0685803928111755,-0.01422119140625,-0.149505615234375,-1.02093505859375,36.85829162597656,15.396987915039062,-72.43646240234375,,,,,,,,,,
0,2018-10-30 16:41:11.7400,00:32,60,0,2018-10-30 16:41:17.1940,1540932077.194316,0.4745356251518781,0.12929061196894884,0.0685803928111755,-0.01422119140625,-0.149505615234375,-1.02093505859375,36.95635986328125,14.833419799804688,-72.60824584960938,,,,,,,,,,
0,2018-10-30 16:41:11.7400,00:32,60,0,2018-10-30 16:41:17.2120,1540932077.211746,0.38975256026866045,0.08574127024342809,0.07283053159483296,-0.003204345703125,-0.161712646484375,-1.044036865234375,37.08656311035156,14.418502807617188,-72.9288330078125,,,,,,,,,,
0,2018-10-30 16:41:11.7400,00:32,60,0,2018-10-30 16:41:17.2290,1540932077.229403,0.24931448860885796,0.036750557778657454,-0.0514160532695058,-0.0152587890625,-0.102203369140625,-1.11065673828125,37.09883117675781,14.33782958984375,-73.16534423828125,,,,,,,,,,
0,2018-10-30 16:41:11.7400,00:32,60,0,2018-10-30 16:41:17.2450,1540932077.244941,0.24931448860885796,0.036750557778657454,-0.0514160532695058,-0.0152587890625,-0.102203369140625,-1.11065673828125,37.15034484863281,14.406494140625,-72.691650390625,,,,,,,,,,
0,2018-10-30 16:41:11.7400,00:32,60,0,2018-10-30 16:41:17.2620,1540932077.261685,0.3277123584625016,0.04304893375669486,-0.19171004791433505,0.0084075927734375,-0.0988311767578125,-1.161468505859375,37.15034484863281,14.406494140625,-72.691650390625,,,,,,,,,,
0,2018-10-30 16:41:11.7400,00:32,60,0,2018-10-30 16:41:17.2780,1540932077.278368,0.26304707876985156,-0.12148675102668965,-0.274353795493892,0.0139007568359375,-0.108673095703125,-1.1522216796875,37.212188720703125,14.394287109375,-72.68873596191406,,,,,,,,,,
0,2018-10-30 16:41:11.7400,00:32,60,0,2018-10-30 16:41:17.2950,1540932077.294979,0.26304707876985156,-0.12148675102668965,-0.274353795493892,0.0139007568359375,-0.108673095703125,-1.1522216796875,37.212188720703125,14.394287109375,-72.68873596191406,,,,,,,,,,
0,2018-10-30 16:41:11.7400,00:32,60,0,2018-10-30 16:41:17.3120,1540932077.311671,-0.023966585597950087,-0.8830890374520619,-0.63075026310931,-0.0592803955078125,-0.116241455078125,-1.1294097900390625,36.71180725097656,14.182144165039062,-72.80191040039062,,,,,,,,,,
0,2018-10-30 16:41:11.7400,00:32,60,0,2018-10-30 16:41:17.3280,1540932077.328361,-0.11255131293725579,-1.1443629835681388,-0.8077434165237581,-0.0863800048828125,-0.1099090576171875,-1.0764617919921875,36.20161437988281,14.360183715820312,-72.97914123535156,,,,,,,,,,
0,2018-10-30 16:41:11.7400,00:32,60,0,2018-10-30 16:41:17.3450,1540932077.345053,-0.11255131293725579,-1.1443629835681388,-0.8077434165237581,-0.0863800048828125,-0.1099090576171875,-1.0764617919921875,35.29936218261719,14.072799682617188,-72.80474853515625,,,,,,,,,,
0,2018-10-30 16:41:11.7400,00:32,60,0,2018-10-30 16:41:17.3620,1540932077.361722,-0.02653174235991441,-0.7993198379958375,-1.016156544478961,-0.14276123046875,-0.162506103515625,-0.982513427734375,34.28533935546875,14.738784790039062,-72.99122619628906,,,,,,,,,,
0,2018-10-30 16:41:11.7400,00:32,60,0,2018-10-30 16:41:17.3780,1540932077.378484,0.08099498454868888,-0.3314817966693997,-0.8785350319880264,-0.1276092529296875,-0.210479736328125,-0.960479736328125,33.75852966308594,14.687835693359375,-72.86567687988281,,,,,,,,,,
0,2018-10-30 16:41:11.7400,00:32,60,0,2018-10-30 16:41:17.3950,1540932077.3950381,0.1455896904724518,0.09926959594881261,-0.5599732950310371,-0.0589141845703125,-0.2310791015625,-0.9555511474609375,33.75852966308594,14.687835693359375,-72.86567687988281,,,,,,,,,,
0,2018-10-30 16:41:11.7400,00:32,60,0,2018-10-30 16:41:17.4120,1540932077.411751,0.10065923340561596,0.44011852912034805,-0.21686626757122351,-0.0099029541015625,-0.1965484619140625,-0.9322662353515625,34.06770324707031,14.626785278320312,-72.85113525390625,,,,,,,,,,
0,2018-10-30 16:41:11.7400,00:32,60,0,2018-10-30 16:41:17.4280,1540932077.428473,0.02730246117938334,0.5266659382257431,-0.045403967108651924,-0.023651123046875,-0.1463623046875,-0.9727783203125,34.248809814453125,14.280441284179688,-72.77610778808594,,,,,,,,,,
0,2018-10-30 16:41:11.7400,00:32,60,0,2018-10-30 16:41:17.4460,1540932077.446135,-0.06211024294282799,0.4505328205631029,0.0037832866445665658,-0.02471923828125,-0.091339111328125,-0.993499755859375,34.63189697265625,14.826904296875,-72.500732421875,,,,,,,,,,
0,2018-10-30 16:41:11.7400,00:32,60,0,2018-10-30 16:41:17.4630,1540932077.462827,-0.14577611174875735,0.29783302261235756,-0.017802166622743677,-0.0205078125,-0.0511016845703125,-1.0052642822265625,34.8018798828125,14.870620727539062,-72.64598083496094,,,,,,,,,,
0,2018-10-30 16:41:11.7400,00:32,60,0,2018-10-30 16:41:17.4800,1540932077.47958,-0.19624381335408592,0.08750641341393262,-0.04375014407171272,0.0018768310546875,-0.035247802734375,-1.020599365234375,34.84104919433594,15.329208374023438,-72.54872131347656,,,,,,,,,,
0,2018-10-30 16:41:11.7400,00:32,60,0,2018-10-30 16:41:17.4950,1540932077.4950309,-0.1921420126431459,-0.14293718202673286,-0.038681083252855894,0.0267486572265625,-0.0418701171875,-1.027130126953125,34.84104919433594,15.329208374023438,-72.54872131347656,,,,,,,,,,
0,2018-10-30 16:41:11.7400,00:32,60,0,2018-10-30 16:41:17.5120,1540932077.511685,-0.15156688922302564,-0.3088300137016218,-0.034612039423323825,0.0253753662109375,-0.0585784912109375,-0.99005126953125,34.73286437988281,15.273269653320312,-72.40058898925781,,,,,,,,,,
0,2018-10-30 16:41:11.7400,00:32,60,0,2018-10-30 16:41:17.5300,1540932077.530096,-0.14548609350604771,-0.33271377498967036,-0.027146932571722713,0.010345458984375,-0.079498291015625,-0.913726806640625,34.53253173828125,15.390335083007812,-72.48516845703125,,,,,,,,,,
0,2018-10-30 16:41:11.7400,00:32,60,0,2018-10-30 16:41:17.5460,1540932077.546023,-0.14091557644325373,-0.28960465379233974,0.0007475493179852421,-0.0036773681640625,-0.1033935546875,-0.8660888671875,34.48487854003906,15.322052001953125,-72.49031066894531,,,,,,,,,,
0,2018-10-30 16:41:11.7400,00:32,60,0,2018-10-30 16:41:17.5620,1540932077.561774,-0.08766220833770225,-0.24238361187192675,-0.03454546039607185,-0.0288848876953125,-0.1085968017578125,-0.8670806884765625,34.276031494140625,15.829437255859375,-72.48277282714844,,,,,,,,,,
0,2018-10-30 16:41:11.7400,00:32,60,0,2018-10-30 16:41:17.5780,1540932077.578432,-0.0034796862802975326,-0.1650629906792202,-0.09765119295437145,-0.034271240234375,-0.11309814453125,-0.8675994873046875,34.0994873046875,16.17620849609375,-72.01112365722656,,,,,,,,,,
0,2018-10-30 16:41:11.7400,00:32,60,0,2018-10-30 16:41:17.5950,1540932077.5952501,0.04171042899282103,-0.06607435822541094,-0.07612273133438892,-0.0148468017578125,-0.152008056640625,-0.8615570068359375,34.125274658203125,16.014968872070312,-72.32795715332031,,,,,,,,,,
0,2018-10-30 16:41:11.7400,00:32,60,0,2018-10-30 16:41:17.6120,1540932077.6119308,0.0551567293366311,0.03833141020172849,0.019309515799728526,0.009674072265625,-0.1917724609375,-0.873748779296875,34.125274658203125,16.014968872070312,-72.32795715332031,,,,,,,,,,
0,2018-10-30 16:41:11.7400,00:32,60,0,2018-10-30 16:41:17.6290,1540932077.6285238,0.08026554472611618,0.15868658408124348,0.1554513759890152,0.00762939453125,-0.20733642578125,-0.9192962646484375,34.306365966796875,15.66864013671875,-72.2529296875,,,,,,,,,,
0,2018-10-30 16:41:11.7400,00:32,60,0,2018-10-30 16:41:17.6450,1540932077.645211,0.17921529502801029,0.25394865522170484,0.16839540415123636,-0.025238037109375,-0.1716766357421875,-0.9828338623046875,34.47703552246094,15.712432861328125,-72.32009887695312,,,,,,,,,,
0,2018-10-30 16:41:11.7400,00:32,60,0,2018-10-30 16:41:17.6620,1540932077.6618161,0.32211199700617393,0.2844064296606141,0.05274550328567336,-0.0475921630859375,-0.1371307373046875,-1.0323638916015625,34.51243591308594,15.861404418945312,-72.07844543457031,,,,,,,,,,
0,2018-10-30 16:41:11.7400,00:32,60,0,2018-10-30 16:41:17.6790,1540932077.678594,0.41370183531952504,0.2301280108514911,-0.11761052006007931,-0.044708251953125,-0.1295013427734375,-1.0512847900390625,34.84300231933594,15.32940673828125,-72.314453125,,,,,,,,,,
0,2018-10-30 16:41:11.7400,00:32,60,0,2018-10-30 16:41:17.6950,1540932077.6952372,0.4082583340514031,0.1894775199725216,-0.2172494964520859,-0.01605224609375,-0.1542205810546875,-1.03912353515625,34.8609619140625,15.558563232421875,-72.46102905273438,,,,,,,,,,
0,2018-10-30 16:41:11.7400,00:32,60,0,2018-10-30 16:41:17.7120,1540932077.71205,0.3249139087890463,0.1986904594475417,-0.15724980867314572,0.0312957763671875,-0.20556640625,-1.02349853515625,34.8609619140625,15.558563232421875,-72.46102905273438,,,,,,,,,,
0,2018-10-30 16:41:11.7400,00:32,60,0,2018-10-30 16:41:17.7280,1540932077.7284641,0.24339534677004784,0.19143467705762085,-0.040515202295593467,0.0592498779296875,-0.226898193359375,-1.0384979248046875,35.11482238769531,15.11920166015625,-72.77581787109375,,,,,,,,,,
0,2018-10-30 16:41:11.7400,00:32,60,0,2018-10-30 16:41:17.7460,1540932077.746197,0.1381626668244388,0.12182310827236666,0.038668033763514506,0.057342529296875,-0.2294158935546875,-1.0488128662109375,34.9603271484375,14.995101928710938,-72.47660827636719,,,,,,,,,,
0,2018-10-30 16:41:11.7400,00:32,60,0,2018-10-30 16:41:17.7630,1540932077.7629051,-0.016914268715311258,0.020280238017062406,0.10818612559450691,0.0399627685546875,-0.2300262451171875,-1.040252685546875,35.131622314453125,15.038970947265625,-72.46565246582031,,,,,,,,,,
0,2018-10-30 16:41:11.7400,00:32,60,0,2018-10-30 16:41:17.7800,1540932077.779542,-0.1426114774254162,0.0019406454863407409,0.12746927609944364,-0.00018310546875,-0.2187652587890625,-1.03778076171875,35.04646301269531,15.521926879882812,-72.45230102539062,,,,,,,,,,
0,2018-10-30 16:41:11.7400,00:32,60,0,2018-10-30 16:41:17.7950,1540932077.7953281,-0.19211431576780907,0.1138858229594945,0.11155635595400218,-0.0265045166015625,-0.204833984375,-1.05670166015625,35.219696044921875,15.565963745117188,-72.20707702636719,,,,,,,,,,
0,2018-10-30 16:41:11.7400,00:32,60,0,2018-10-30 16:41:17.8120,1540932077.811918,-0.20905947715176523,0.21572403777968854,0.11061519482476818,0.0057830810546875,-0.188018798828125,-1.0891571044921875,35.219696044921875,15.565963745117188,-72.20707702636719,,,,,,,,,,
0,2018-10-30 16:41:11.7400,00:32,60,0,2018-10-30 16:41:17.8290,1540932077.8286328,-0.24064350241566898,0.23630787616101998,0.17811248002060845,0.0690460205078125,-0.1795806884765625,-1.117401123046875,35.10304260253906,15.900344848632812,-71.966796875,,,,,,,,,,
0,2018-10-30 16:41:11.7400,00:32,60,0,2018-10-30 16:41:17.8450,1540932077.8452702,-0.3104814398935799,0.13365553299558872,0.32042728130058984,0.122711181640625,-0.1685638427734375,-1.133880615234375,35.459869384765625,15.907577514648438,-71.94712829589844,,,,,,,,,,
0,2018-10-30 16:41:11.7400,00:32,60,0,2018-10-30 16:41:17.8620,1540932077.861934,-0.4696234245212269,-0.04706285015166228,0.45410039115937306,0.12738037109375,-0.1312713623046875,-1.113311767578125,35.56803894042969,15.963485717773438,-72.09527587890625,,,,,,,,,,
0,2018-10-30 16:41:11.7400,00:32,60,0,2018-10-30 16:41:17.8790,1540932077.878594,-0.6256796043937991,-0.14739904211705163,0.49470693988035624,0.07763671875,-0.0716705322265625,-1.082122802734375,35.519561767578125,16.595550537109375,-71.68406677246094,,,,,,,,,,
0,2018-10-30 16:41:11.7400,00:32,60,0,2018-10-30 16:41:17.8950,1540932077.895467,-0.635121575722566,-0.1610437479620726,0.4133068885298663,0.0269317626953125,-0.004486083984375,-1.0976715087890625,35.42851257324219,17.469070434570312,-71.26622009277344,,,,,,,,,,
0,2018-10-30 16:41:11.7400,00:32,60,0,2018-10-30 16:41:17.9120,1540932077.912105,-0.14907417044271146,-0.014187191759070118,0.11888404369335522,-0.0102691650390625,0.0121612548828125,-1.1287689208984375,35.445159912109375,17.698104858398438,-71.56901550292969,,,,,,,,,,
0,2018-10-30 16:41:11.7400,00:32,60,0,2018-10-30 16:41:17.9290,1540932077.928621,-0.14907417044271146,-0.014187191759070118,0.11888404369335522,-0.0102691650390625,0.0121612548828125,-1.1287689208984375,35.445159912109375,17.698104858398438,-71.56901550292969,,,,,,,,,,
0,2018-10-30 16:41:11.7400,00:32,60,0,2018-10-30 16:41:17.9450,1540932077.945303,0.033346238957209166,0.08377985210058474,0.06648874609102727,-0.0038909912109375,-0.04217529296875,-1.05645751953125,35.639801025390625,17.271209716796875,-71.57432556152344,,,,,,,,,,
0,2018-10-30 16:41:11.7400,00:32,60,0,2018-10-30 16:41:17.9620,1540932077.962095,-0.08507494733869027,0.17656198763396433,0.13945030521149213,0.0247039794921875,-0.1242218017578125,-0.9073638916015625,35.7879638671875,17.085403442382812,-72.04153442382812,,,,,,,,,,
0,2018-10-30 16:41:11.7400,00:32,60,0,2018-10-30 16:41:17.9790,1540932077.978725,-0.08507494733869027,0.17656198763396433,0.13945030521149213,0.0247039794921875,-0.1242218017578125,-0.9073638916015625,35.78532409667969,17.476287841796875,-71.24653625488281,,,,,,,,,,
0,2018-10-30 16:41:11.7400,00:32,60,0,2018-10-30 16:41:17.9970,1540932077.996594,-0.19093533435323098,0.14917776740911556,0.2090480255590779,0.038299560546875,-0.1205596923828125,-0.905029296875,35.86070251464844,17.383529663085938,-71.32394409179688,,,,,,,,,,
0,2018-10-30 16:41:11.7400,00:32,60,0,2018-10-30 16:41:18.0130,1540932078.013385,-0.07886605357327954,-0.04008510177954567,0.20557499718150557,0.0214385986328125,-0.093780517578125,-0.945587158203125,35.79103088378906,17.7861328125,-71.15663146972656,,,,,,,,,,
0,2018-10-30 16:41:11.7400,00:32,60,0,2018-10-30 16:41:18.0290,1540932078.0290089,-0.07886605357327954,-0.04008510177954567,0.20557499718150557,0.0214385986328125,-0.093780517578125,-0.945587158203125,35.79103088378906,17.7861328125,-71.15663146972656,,,,,,,,,,
0,2018-10-30 16:41:11.7400,00:32,60,0,2018-10-30 16:41:18.0460,1540932078.0456161,0.09394753482639827,-0.055740494247576475,0.18945115467772983,-0.0014801025390625,-0.1220550537109375,-0.8701934814453125,36.079010009765625,17.49560546875,-71.38595581054688,,,,,,,,,,
0,2018-10-30 16:41:11.7400,00:32,60,0,2018-10-30 16:41:18.0620,1540932078.062197,0.13251277057183572,0.011949337495076534,0.2098717412842394,-0.0164642333984375,-0.142333984375,-0.8554534912109375,35.96888732910156,17.439483642578125,-71.47210693359375,,,,,,,,,,
0,2018-10-30 16:41:11.7400,00:32,60,0,2018-10-30 16:41:18.0790,1540932078.0789452,0.13251277057183572,0.011949337495076534,0.2098717412842394,-0.0164642333984375,-0.142333984375,-0.8554534912109375,36.03446960449219,17.736892700195312,-71.61357116699219,,,,,,,,,,
0,2018-10-30 16:41:11.7400,00:32,60,0,2018-10-30 16:41:18.0960,1540932078.095577,0.2191379439810611,0.12598696063670556,0.15537760642682003,-0.046905517578125,-0.1539764404296875,-0.8892974853515625,36.221282958984375,17.700393676757812,-71.44865417480469,,,,,,,,,,
0,2018-10-30 16:41:11.7400,00:32,60,0,2018-10-30 16:41:18.1120,1540932078.112328,0.2565713362632149,0.16697300981302501,0.09438003218742713,-0.04443359375,-0.156982421875,-0.918975830078125,36.2960205078125,17.607559204101562,-71.60415649414062,,,,,,,,,,
0,2018-10-30 16:41:11.7400,00:32,60,0,2018-10-30 16:41:18.1290,1540932078.1289392,0.2565713362632149,0.16697300981302501,0.09438003218742713,-0.04443359375,-0.156982421875,-0.918975830078125,36.2960205078125,17.607559204101562,-71.60415649414062,,,,,,,,,,
0,2018-10-30 16:41:11.7400,00:32,60,0,2018-10-30 16:41:18.1460,1540932078.145822,0.286386489931088,0.29134609482914253,0.025991120658628325,-0.012115478515625,-0.16900634765625,-0.99847412109375,36.12599182128906,17.5638427734375,-71.45892333984375,,,,,,,,,,
0,2018-10-30 16:41:11.7400,00:32,60,0,2018-10-30 16:41:18.1620,1540932078.162473,0.32177590607660594,0.35160224502105736,0.019631758291628113,0.0027618408203125,-0.1707000732421875,-1.0579986572265625,36.55183410644531,17.16839599609375,-71.68464660644531,,,,,,,,,,
0,2018-10-30 16:41:11.7400,00:32,60,0,2018-10-30 16:41:18.1790,1540932078.179054,0.3591797372706598,0.39785096682748244,-0.00495001751813028,0.00921630859375,-0.161834716796875,-1.099517822265625,36.67356872558594,17.143798828125,-71.91313171386719,,,,,,,,,,
0,2018-10-30 16:41:11.7400,00:32,60,0,2018-10-30 16:41:18.1960,1540932078.195668,0.361133432246342,0.3699160048892053,-0.056386310811920685,0.0189056396484375,-0.1550750732421875,-1.1383514404296875,36.93315124511719,17.014266967773438,-72.13801574707031,,,,,,,,,,
0,2018-10-30 16:41:11.7400,00:32,60,0,2018-10-30 16:41:18.2130,1540932078.2134829,0.31826372923100943,0.29148138341251856,-0.08431514747969067,0.0495452880859375,-0.150726318359375,-1.164154052734375,36.79917907714844,17.119552612304688,-71.67300415039062,,,,,,,,,,
0,2018-10-30 16:41:11.7400,00:32,60,0,2018-10-30 16:41:18.2290,1540932078.229062,0.24960077842604148,0.16458335536689692,-0.10265980001648348,0.069366455078125,-0.1536712646484375,-1.176116943359375,37.19340515136719,16.884796142578125,-72.28477478027344,,,,,,,,,,
0,2018-10-30 16:41:11.7400,00:32,60,0,2018-10-30 16:41:18.2460,1540932078.245597,0.16387815031024394,0.010933075223102296,-0.15208833616446316,0.05694580078125,-0.15655517578125,-1.168975830078125,37.19340515136719,16.884796142578125,-72.28477478027344,,,,,,,,,,
0,2018-10-30 16:41:11.7400,00:32,60,0,2018-10-30 16:41:18.2620,1540932078.2623858,0.16387815031024394,0.010933075223102296,-0.15208833616446316,0.05694580078125,-0.15655517578125,-1.168975830078125,37.08717346191406,16.82904052734375,-71.90235900878906,,,,,,,,,,
0,2018-10-30 16:41:11.7400,00:32,60,0,2018-10-30 16:41:18.2790,1540932078.278912,-0.05975148116534481,-0.2619597100967722,-0.3451262361983117,0.01593017578125,-0.171783447265625,-1.10882568359375,37.171539306640625,16.6552734375,-72.60675048828125,,,,,,,,,,
0,2018-10-30 16:41:11.7400,00:32,60,0,2018-10-30 16:41:18.2960,1540932078.295744,-0.13604625270615284,-0.32037748018820533,-0.4297780072397884,-0.008758544921875,-0.1959686279296875,-1.100677490234375,36.52020263671875,17.329055786132812,-72.07069396972656,,,,,,,,,,
0,2018-10-30 16:41:11.7400,00:32,60,0,2018-10-30 16:41:18.3120,1540932078.312347,-0.22938632048790403,-0.3800088527883876,-0.4405377106759265,0.003875732421875,-0.2054290771484375,-1.0899658203125,36.08930969238281,17.41473388671875,-71.85676574707031,,,,,,,,,,
0,2018-10-30 16:41:11.7400,00:32,60,0,2018-10-30 16:41:18.3290,1540932078.328895,-0.35246857132366016,-0.4556945593878945,-0.4223967899625248,-0.00384521484375,-0.1985015869140625,-1.0756988525390625,35.87150573730469,17.611984252929688,-72.32960510253906,,,,,,,,,,
0,2018-10-30 16:41:11.7400,00:32,60,0,2018-10-30 16:41:18.3460,1540932078.3457189,-0.42769594789956444,-0.3899645478914308,-0.4501400043023162,-0.0347442626953125,-0.146392822265625,-1.04083251953125,35.87150573730469,17.611984252929688,-72.32960510253906,,,,,,,,,,
0,2018-10-30 16:41:11.7400,00:32,60,0,2018-10-30 16:41:18.3620,1540932078.362238,-0.33324827142044927,-0.11918577984486119,-0.5001592295800754,-0.0622406005859375,-0.08917236328125,-1.0270233154296875,35.54878234863281,17.753585815429688,-72.26385498046875,,,,,,,,,,
0,2018-10-30 16:41:11.7400,00:32,60,0,2018-10-30 16:41:18.3790,1540932078.378889,-0.04506441406966682,0.23406469557484624,-0.5415564708287032,-0.0679473876953125,-0.0511627197265625,-1.0381317138671875,35.54618835449219,17.753326416015625,-72.57623291015625,,,,,,,,,,
0,2018-10-30 16:41:11.7400,00:32,60,0,2018-10-30 16:41:18.3960,1540932078.395566,0.27523050812474603,0.5338924258436731,-0.5541140743167537,-0.0492095947265625,-0.0428314208984375,-1.0272216796875,35.76643371582031,17.865585327148438,-72.40394592285156,,,,,,,,,,
0,2018-10-30 16:41:11.7400,00:32,60,0,2018-10-30 16:41:18.4120,1540932078.412293,0.4177311980488149,0.6665199786584912,-0.5229297895324709,-0.02685546875,-0.07440185546875,-0.981781005859375,35.86041259765625,18.002029418945312,-72.54988098144531,,,,,,,,,,
0,2018-10-30 16:41:11.7400,00:32,60,0,2018-10-30 16:41:18.4300,1540932078.430108,0.37533926613304264,0.6569696166733581,-0.4672465532483312,-0.010284423828125,-0.11474609375,-0.9321136474609375,36.21723937988281,18.009246826171875,-72.53019714355469,,,,,,,,,,
0,2018-10-30 16:41:11.7400,00:32,60,0,2018-10-30 16:41:18.4470,1540932078.446971,0.1796469934407121,0.6215634226129727,-0.3398105666625135,0.0275421142578125,-0.124969482421875,-0.876220703125,36.47306823730469,17.570098876953125,-72.61068725585938,,,,,,,,,,
0,2018-10-30 16:41:11.7400,00:32,60,0,2018-10-30 16:41:18.4630,1540932078.463346,-0.1098631181329298,0.49272208591992017,-0.15356985267887424,0.0636138916015625,-0.115753173828125,-0.8665618896484375,36.47306823730469,17.570098876953125,-72.61068725585938,,,,,,,,,,
0,2018-10-30 16:41:11.7400,00:32,60,0,2018-10-30 16:41:18.4790,1540932078.4790459,-0.2862349560650625,0.262624967737074,-0.07242573110914091,0.057830810546875,-0.06103515625,-0.912017822265625,36.82728576660156,17.577072143554688,-72.90341186523438,,,,,,,,,,
0,2018-10-30 16:41:11.7400,00:32,60,0,2018-10-30 16:41:18.4960,1540932078.495749,-0.31065720852552514,0.007903729483137164,-0.14876524375626227,0.0316009521484375,0.0036468505859375,-0.9444580078125,36.92826843261719,18.0234375,-72.80322265625,,,,,,,,,,
0,2018-10-30 16:41:11.7400,00:32,60,0,2018-10-30 16:41:18.5120,1540932078.5123348,-0.2966324695929498,-0.21548142380438232,-0.30967343681884985,0.01971435546875,0.020965576171875,-0.917022705078125,36.61125183105469,18.474884033203125,-72.64755249023438,,,,,,,,,,
0,2018-10-30 16:41:11.7400,00:32,60,0,2018-10-30 16:41:18.5290,1540932078.528955,-0.33362271186971443,-0.3596164956894328,-0.4212119495935485,0.0272979736328125,-0.013885498046875,-0.863128662109375,36.1834716796875,18.870132446289062,-72.65611267089844,,,,,,,,,,
0,2018-10-30 16:41:11.7400,00:32,60,0,2018-10-30 16:41:18.5470,1540932078.547404,-0.3733213889750896,-0.4242476869201298,-0.39236884972355435,0.0487060546875,-0.088043212890625,-0.83587646484375,35.983123779296875,18.987152099609375,-72.74069213867188,,,,,,,,,,
0,2018-10-30 16:41:11.7400,00:32,60,0,2018-10-30 16:41:18.5630,1540932078.5630999,-0.34120286728040694,-0.34182897645268456,-0.2530628878431445,0.0550384521484375,-0.1363677978515625,-0.835662841796875,35.983123779296875,18.987152099609375,-72.74069213867188,,,,,,,,,,
0,2018-10-30 16:41:11.7400,00:32,60,0,2018-10-30 16:41:18.5790,1540932078.5791202,-0.16041337773205086,-0.15582262064497227,-0.13829475961450674,0.0316925048828125,-0.154266357421875,-0.875457763671875,35.80329895019531,19.333633422851562,-72.65953063964844,,,,,,,,,,
0,2018-10-30 16:41:11.7400,00:32,60,0,2018-10-30 16:41:18.5960,1540932078.59571,0.06173926460297995,0.03553748790212636,-0.10919892575706404,0.011810302734375,-0.1490631103515625,-0.9135589599609375,35.657135009765625,19.128463745117188,-73.06541442871094,,,,,,,,,,
0,2018-10-30 16:41:11.7400,00:32,60,0,2018-10-30 16:41:18.6120,1540932078.612473,0.23184628238681024,0.17037173599618413,-0.15512061138162736,0.0109100341796875,-0.150177001953125,-0.9372711181640625,35.58746337890625,19.531051635742188,-72.89810180664062,,,,,,,,,,
0,2018-10-30 16:41:11.7400,00:32,60,0,2018-10-30 16:41:18.6290,1540932078.628981,0.2846258741344366,0.1604091166743067,-0.22475162124283912,0.039764404296875,-0.160736083984375,-0.96136474609375,35.7685546875,19.184722900390625,-72.82305908203125,,,,,,,,,,
0,2018-10-30 16:41:11.7400,00:32,60,0,2018-10-30 16:41:18.6460,1540932078.645802,0.2542509240054288,0.06987974910702516,-0.23342287375213713,0.0811767578125,-0.1846466064453125,-0.9844512939453125,35.6429443359375,19.208969116210938,-73.06318664550781,,,,,,,,,,
0,2018-10-30 16:41:11.7400,00:32,60,0,2018-10-30 16:41:18.6620,1540932078.662349,0.2480955597779287,-0.010305900786388636,-0.18211893956452366,0.09796142578125,-0.2154388427734375,-1.0187225341796875,35.6429443359375,19.208969116210938,-73.06318664550781,,,,,,,,,,
0,2018-10-30 16:41:11.7400,00:32,60,0,2018-10-30 16:41:18.6790,1540932078.6790628,0.25531618844146053,-3.0360036426903317e-05,-0.06431320979654154,0.1039581298828125,-0.239654541015625,-1.036224365234375,35.84788513183594,18.701187133789062,-73.53929138183594,,,,,,,,,,
0,2018-10-30 16:41:11.7400,00:32,60,0,2018-10-30 16:41:18.6960,1540932078.695817,0.21141664103259436,0.23789298964183514,0.319359353703468,0.11761474609375,-0.225982666015625,-1.0736541748046875,36.02507019042969,18.3544921875,-73.93284606933594,,,,,,,,,,
0,2018-10-30 16:41:11.7400,00:32,60,0,2018-10-30 16:41:18.7120,1540932078.712393,0.21141664103259436,0.23789298964183514,0.319359353703468,0.11761474609375,-0.225982666015625,-1.0736541748046875,36.265228271484375,18.696090698242188,-73.67291259765625,,,,,,,,,,
0,2018-10-30 16:41:11.7400,00:32,60,0,2018-10-30 16:41:18.7290,1540932078.7290611,0.2179512393993218,0.28285087726789876,0.42114510425018753,0.1113128662109375,-0.161773681640625,-1.1366729736328125,36.30845642089844,18.454666137695312,-73.60148620605469,,,,,,,,,,
0,2018-10-30 16:41:11.7400,00:32,60,0,2018-10-30 16:41:18.7460,1540932078.74585,0.2219539705177109,0.003331081891471111,0.25695749462127637,0.0609130859375,-0.0814361572265625,-1.187774658203125,36.507537841796875,18.337493896484375,-73.67308044433594,,,,,,,,,,
0,2018-10-30 16:41:11.7400,00:32,60,0,2018-10-30 16:41:18.7640,1540932078.763599,0.2219539705177109,0.003331081891471111,0.25695749462127637,0.0609130859375,-0.0814361572265625,-1.187774658203125,36.64213562011719,18.232254028320312,-74.05996704101562,,,,,,,,,,
0,2018-10-30 16:41:11.7400,00:32,60,0,2018-10-30 16:41:18.7790,1540932078.779111,0.12514380383558646,-0.2468593203999139,0.03286207627103276,0.029815673828125,-0.0826416015625,-1.1509552001953125,36.64213562011719,18.232254028320312,-74.05996704101562,,,,,,,,,,
0,2018-10-30 16:41:11.7400,00:32,60,0,2018-10-30 16:41:18.7960,1540932078.795789,-0.013207148477920958,-0.31185429943551574,-0.15137301109566786,0.0203857421875,-0.1163177490234375,-1.0922393798828125,36.593841552734375,18.163894653320312,-74.1431884765625,,,,,,,,,,
0,2018-10-30 16:41:11.7400,00:32,60,0,2018-10-30 16:41:18.8120,1540932078.812423,-0.13684253787208653,-0.23486497548241503,-0.17373637371739026,0.07696533203125,-0.1555023193359375,-1.0628204345703125,36.317474365234375,18.373672485351562,-74.22846984863281,,,,,,,,,,
0,2018-10-30 16:41:11.7400,00:32,60,0,2018-10-30 16:41:18.8290,1540932078.829126,-0.3179324319914036,-0.00010120012142301106,0.24744548215584036,0.2230072021484375,-0.1773223876953125,-1.0895843505859375,36.07843017578125,18.73260498046875,-73.83781433105469,,,,,,,,,,
0,2018-10-30 16:41:11.7400,00:32,60,0,2018-10-30 16:41:18.8460,1540932078.8456678,-0.3179324319914036,-0.00010120012142301106,0.24744548215584036,0.2230072021484375,-0.1773223876953125,-1.0895843505859375,36.31468200683594,19.073806762695312,-74.04644775390625,,,,,,,,,,
0,2018-10-30 16:41:11.7400,00:32,60,0,2018-10-30 16:41:18.8620,1540932078.8624868,-0.3252156449405523,-0.03788559703524923,0.5172577890428202,0.2218017578125,-0.1427001953125,-1.115753173828125,36.31468200683594,19.073806762695312,-74.04644775390625,,,,,,,,,,
0,2018-10-30 16:41:11.7400,00:32,60,0,2018-10-30 16:41:18.8790,1540932078.879136,-0.1566774953548877,0.03970267184701029,0.45520293985066584,0.0780181884765625,-0.0206146240234375,-1.0643310546875,36.546539306640625,19.105331420898438,-74.18876647949219,,,,,,,,,,
0,2018-10-30 16:41:11.7400,00:32,60,0,2018-10-30 16:41:18.8960,1540932078.8958879,-0.1566774953548877,0.03970267184701029,0.45520293985066584,0.0780181884765625,-0.0206146240234375,-1.0643310546875,36.88604736328125,18.883468627929688,-73.94438171386719,,,,,,,,,,
0,2018-10-30 16:41:11.7400,00:32,60,0,2018-10-30 16:41:18.9120,1540932078.912448,-0.14740223791035972,0.0974573148270137,0.32569767709785663,0.0710296630859375,-0.01910400390625,-1.018402099609375,36.949676513671875,19.180694580078125,-74.32014465332031,,,,,,,,,,
0,2018-10-30 16:41:11.7400,00:32,60,0,2018-10-30 16:41:18.9290,1540932078.929255,-0.24583187285136135,0.044578653486836366,0.2614044410094907,0.1146087646484375,-0.091339111328125,-1.000885009765625,36.88441467285156,19.892974853515625,-74.21913146972656,,,,,,,,,,
0,2018-10-30 16:41:11.7400,00:32,60,0,2018-10-30 16:41:18.9460,1540932078.945795,-0.24583187285136135,0.044578653486836366,0.2614044410094907,0.1146087646484375,-0.091339111328125,-1.000885009765625,36.9468994140625,19.880844116210938,-74.13812255859375,,,,,,,,,,
0,2018-10-30 16:41:11.7400,00:32,60,0,2018-10-30 16:41:18.9620,1540932078.962429,-0.2761295913087568,-0.1359306715148434,0.30402354056624675,0.0949249267578125,-0.1089630126953125,-0.9673919677734375,37.043487548828125,20.01751708984375,-73.97166442871094,,,,,,,,,,
0,2018-10-30 16:41:11.7400,00:32,60,0,2018-10-30 16:41:18.9800,1540932078.980381,-0.2367824514672721,-0.0899962027170477,0.3533303702524098,0.0841827392578125,-0.1046142578125,-0.946563720703125,37.043487548828125,20.01751708984375,-73.97166442871094,,,,,,,,,,
0,2018-10-30 16:41:11.7400,00:32,60,0,2018-10-30 16:41:18.9970,1540932078.9969568,-0.2367824514672721,-0.0899962027170477,0.3533303702524098,0.0841827392578125,-0.1046142578125,-0.946563720703125,37.440277099609375,19.78302001953125,-74.27104187011719,,,,,,,,,,
0,2018-10-30 16:41:11.7400,00:32,60,0,2018-10-30 16:41:19.0130,1540932079.012519,-0.011297661976334144,0.009390838635837409,0.383382811573409,0.07171630859375,-0.0888824462890625,-0.9657745361328125,37.3443603515625,19.646408081054688,-74.35940551757812,,,,,,,,,,
0,2018-10-30 16:41:11.7400,00:32,60,0,2018-10-30 16:41:19.0290,1540932079.029327,0.07443721668047776,-0.07244996587506064,0.35756053532789167,0.0666351318359375,-0.1038970947265625,-0.9710845947265625,37.36930847167969,20.18548583984375,-74.25991821289062,,,,,,,,,,
0,2018-10-30 16:41:11.7400,00:32,60,0,2018-10-30 16:41:19.0460,1540932079.045936,0.07443721668047776,-0.07244996587506064,0.35756053532789167,0.0666351318359375,-0.1038970947265625,-0.9710845947265625,37.35511779785156,20.265975952148438,-74.2576904296875,,,,,,,,,,
0,2018-10-30 16:41:11.7400,00:32,60,0,2018-10-30 16:41:19.0620,1540932079.0624619,0.1475356622809727,-0.2718978283366209,0.28983262038165053,0.046966552734375,-0.1430511474609375,-0.919708251953125,37.39768981933594,20.024505615234375,-74.26435852050781,,,,,,,,,,
0,2018-10-30 16:41:11.7400,00:32,60,0,2018-10-30 16:41:19.0790,1540932079.079242,0.16593251277513107,-0.22232894359919406,0.29203105986151096,0.0255889892578125,-0.1598663330078125,-0.8889007568359375,37.39768981933594,20.024505615234375,-74.26435852050781,,,,,,,,,,
0,2018-10-30 16:41:11.7400,00:32,60,0,2018-10-30 16:41:19.0960,1540932079.095864,0.20108410863530493,-0.08194573305784716,0.2643533592845354,6.103515625e-05,-0.1615447998046875,-0.88507080078125,37.54209899902344,19.529067993164062,-74.58718872070312,,,,,,,,,,
0,2018-10-30 16:41:11.7400,00:32,60,0,2018-10-30 16:41:19.1120,1540932079.112453,0.2707366901013463,0.02250317857895155,0.21413492955723826,-0.00201416015625,-0.1599578857421875,-0.924560546875,37.645233154296875,19.2752685546875,-74.74716186523438,,,,,,,,,,
0,2018-10-30 16:41:11.7400,00:32,60,0,2018-10-30 16:41:19.1290,1540932079.1294641,0.33434975484730606,0.04484630117638933,0.15417891762017535,0.006500244140625,-0.164886474609375,-0.970611572265625,37.873321533203125,18.997146606445312,-74.7451171875,,,,,,,,,,
0,2018-10-30 16:41:11.7400,00:32,60,0,2018-10-30 16:41:19.1460,1540932079.146267,0.381568399922738,0.01634834698366942,0.13485688496332346,0.02880859375,-0.172821044921875,-1.009796142578125,37.690277099609375,19.343292236328125,-75.05441284179688,,,,,,,,,,
0,2018-10-30 16:41:11.7400,00:32,60,0,2018-10-30 16:41:19.1630,1540932079.16271,0.38762123244827007,-0.006522081509604054,0.1594570365846034,0.0385894775390625,-0.1868438720703125,-1.034454345703125,37.76695251464844,19.250656127929688,-74.97561645507812,,,,,,,,,,
0,2018-10-30 16:41:11.7400,00:32,60,0,2018-10-30 16:41:19.1790,1540932079.179367,0.32583669410675875,0.04904024726104612,0.20772922818727066,0.040679931640625,-0.181243896484375,-1.0349884033203125,37.76695251464844,19.250656127929688,-74.97561645507812,,,,,,,,,,
0,2018-10-30 16:41:11.7400,00:32,60,0,2018-10-30 16:41:19.1960,1540932079.1959581,0.24381985464780648,0.0810527751443436,0.24312690013216787,0.038177490234375,-0.156005859375,-1.070465087890625,38.09492492675781,18.718414306640625,-75.52401733398438,,,,,,,,,,
0,2018-10-30 16:41:11.7400,00:32,60,0,2018-10-30 16:41:19.2140,1540932079.213673,0.19414817189230257,0.06218481145335021,0.21206059338417554,0.030120849609375,-0.1107330322265625,-1.1209716796875,38.42872619628906,18.186737060546875,-75.36952209472656,,,,,,,,,,
0,2018-10-30 16:41:11.7400,00:32,60,0,2018-10-30 16:41:19.2300,1540932079.2302198,0.2096797273696447,0.006250439078415972,0.09740564950186616,0.01422119140625,-0.072235107421875,-1.15521240234375,38.65423583984375,17.90838623046875,-75.67985534667969,,,,,,,,,,
0,2018-10-30 16:41:11.7400,00:32,60,0,2018-10-30 16:41:19.2470,1540932079.2470798,0.27137478349852934,-0.08242536837017043,-0.05478095730682092,-0.004730224609375,-0.0654144287109375,-1.1691131591796875,38.27732849121094,18.372222900390625,-75.29278564453125,,,,,,,,,,
0,2018-10-30 16:41:11.7400,00:32,60,0,2018-10-30 16:41:19.2630,1540932079.262673,0.24553999039588867,-0.17348443867826877,-0.21230373999169977,-0.015625,-0.085235595703125,-1.1349029541015625,38.33149719238281,18.04998779296875,-75.61408996582031,,,,,,,,,,
0,2018-10-30 16:41:11.7400,00:32,60,0,2018-10-30 16:41:19.2790,1540932079.2792459,0.12223003928693077,-0.31335765387086545,-0.37093413137394254,-0.0359344482421875,-0.13800048828125,-1.1010894775390625,37.952850341796875,17.813232421875,-75.95574951171875,,,,,,,,,,
0,2018-10-30 16:41:11.7400,00:32,60,0,2018-10-30 16:41:19.2960,1540932079.295902,-0.11434069087368003,-0.4784536677476026,-0.44175770477129184,-0.0204010009765625,-0.1827545166015625,-1.063140869140625,37.952850341796875,17.813232421875,-75.95574951171875,,,,,,,,,,
0,2018-10-30 16:41:11.7400,00:32,60,0,2018-10-30 16:41:19.3130,1540932079.312706,-0.34910127044136396,-0.5295333637714315,-0.3582369782447718,0.012420654296875,-0.1882476806640625,-1.029388427734375,37.87809753417969,17.906051635742188,-75.80023193359375,,,,,,,,,,
0,2018-10-30 16:41:11.7400,00:32,60,0,2018-10-30 16:41:19.3290,1540932079.329258,-0.37810202944789084,-0.4475325032790196,-0.23819232894836004,-0.018096923828125,-0.1798553466796875,-1.0600128173828125,37.367919921875,18.084121704101562,-75.97747802734375,,,,,,,,,,
