SessionID,SessionDate,SessionDuration,SessionFrequency,RecordID,Timestamp,timeIntervalSince1970,GyroX,GyroY,GyroZ,AccX,AccY,AccZ,MagX,MagY,MagZ
0,40:06.4,0:27,60,0,40:06.4,1540932006,-0.13160916,-0.177579315,0.094048469,0.037780762,-0.056808472,-1.160232544,39.6882019,29.27848816,-75.74668884
0,40:06.4,0:27,60,0,40:06.4,1540932006,0.084376134,-0.104695787,0.012700882,0.000701904,-0.045227051,-1.119979858,39.62507629,29.29057312,-75.9058075
0,40:06.4,0:27,60,0,40:06.4,1540932006,0.15916036,-0.124681213,-0.037672278,0.01914978,-0.061462402,-1.099960327,39.35719299,29.11001587,-76.08322144
0,40:06.4,0:27,60,0,40:06.4,1540932006,0.161289824,-0.128916704,-0.065520421,0.028305054,-0.076583862,-1.06463623,39.35719299,29.11001587,-76.08322144
0,40:06.4,0:27,60,0,40:06.4,1540932006,0.1372508,-0.102795888,-0.048348624,0.037490845,-0.094985962,-1.040817261,39.50857544,28.92454529,-76.15994263
0,40:06.4,0:27,60,0,40:06.5,1540932006,0.106304336,-0.030052441,-0.042897134,0.036849976,-0.098953247,-1.009140015,39.24771118,29.05393982,-76.09124756
0,40:06.4,0:27,60,0,40:06.5,1540932006,0.095524659,0.058683021,-0.027793015,0.02746582,-0.104705811,-0.996429443,39.41331482,28.78797913,-76.17021179
0,40:06.4,0:27,60,0,40:06.5,1540932006,0.123505693,0.120023344,-0.017015469,0.023712158,-0.107437134,-1.004776001,39.35147095,28.80018616,-76.17312622
0,40:06.4,0:27,60,0,40:06.5,1540932007,0.238867174,0.163283466,-0.022344188,0.028717041,-0.107315063,-0.990386963,39.53192139,28.45381165,-76.17619324
0,40:06.4,0:27,60,0,40:06.5,1540932007,0.238867174,0.163283466,-0.022344188,0.028717041,-0.107315063,-0.990386963,39.53192139,28.45381165,-76.17619324
0,40:06.4,0:27,60,0,40:06.5,1540932007,0.192226967,0.238520697,-0.061862036,-0.026489258,-0.119338989,-0.925811768,39.33158875,28.57087708,-76.26080322
0,40:06.4,0:27,60,0,40:06.6,1540932007,0.192226967,0.238520697,-0.061862036,-0.026489258,-0.119338989,-0.925811768,39.64793396,28.11936951,-76.49456787
0,40:06.4,0:27,60,0,40:06.6,1540932007,0.06003058,0.310051339,-0.051033357,-0.044433594,-0.14414978,-0.912994385,39.67944336,28.26795959,-76.72151184
0,40:06.4,0:27,60,0,40:06.6,1540932007,0.024391093,0.21639622,-0.076840986,-0.049591064,-0.147415161,-1.004013062,39.75743103,28.17544556,-76.48651123
0,40:06.4,0:27,60,0,40:06.6,1540932007,0.024391093,0.21639622,-0.076840986,-0.049591064,-0.147415161,-1.004013062,39.88043213,28.1509552,-76.55879211
0,40:06.4,0:27,60,0,40:06.6,1540932007,0.054969509,0.212917865,-0.091844703,-0.051422119,-0.157897949,-0.992706299,39.88043213,28.1509552,-76.55879211
0,40:06.4,0:27,60,0,40:06.6,1540932007,0.020720192,0.284380064,-0.028567463,-0.042373657,-0.187026978,-0.983566284,40.08274841,28.03408813,-76.2399292
0,40:06.4,0:27,60,0,40:06.7,1540932007,0.020720192,0.284380064,-0.028567463,-0.042373657,-0.187026978,-0.983566284,40.17788696,28.47988892,-76.84260559
0,40:06.4,0:27,60,0,40:06.7,1540932007,-0.128393127,0.246736282,0.005689577,-0.044754028,-0.196029663,-0.986846924,40.43437195,28.040802,-76.84500122
0,40:06.4,0:27,60,0,40:06.7,1540932007,-0.124757379,0.186131258,0.005613944,-0.041732788,-0.191680908,-1.016601563,40.5927887,28.1652832,-76.67564392
0,40:06.4,0:27,60,0,40:06.7,1540932007,-0.124757379,0.186131258,0.005613944,-0.041732788,-0.191680908,-1.016601563,40.42652893,28.43118286,-76.67478943
0,40:06.4,0:27,60,0,40:06.7,1540932007,0.02430028,-0.006521549,-0.050344397,-0.041610718,-0.193908691,-1.010314941,40.43566895,28.04093933,-76.68881226
0,40:06.4,0:27,60,0,40:06.7,1540932007,0.029543778,-0.125441812,-0.077263896,-0.04359436,-0.208312988,-0.975296021,40.43566895,28.04093933,-76.68881226
0,40:06.4,0:27,60,0,40:06.8,1540932007,0.029543778,-0.125441812,-0.077263896,-0.04359436,-0.208312988,-0.975296021,40.37382507,28.05314636,-76.69172668
0,40:06.4,0:27,60,0,40:06.8,1540932007,-0.125045267,-0.315171533,-0.135287252,-0.065582275,-0.256530762,-0.898330688,40.00657654,28.43603516,-76.8535614
0,40:06.4,0:27,60,0,40:06.8,1540932007,-0.195677359,-0.205225324,-0.141559795,-0.087936401,-0.267776489,-0.877456665,39.54093933,28.37280273,-76.80319214
0,40:06.4,0:27,60,0,40:06.8,1540932007,-0.197261674,-0.040805487,-0.141356596,-0.095291138,-0.266662598,-0.897216797,39.396698,28.16783142,-76.97477722
0,40:06.4,0:27,60,0,40:06.8,1540932007,-0.117990553,0.089295525,-0.138002611,-0.089294434,-0.259658813,-0.948883057,39.33551025,28.18009949,-76.89959717
0,40:06.4,0:27,60,0,40:06.8,1540932007,-0.021475465,0.145728707,-0.146523128,-0.083190918,-0.247848511,-0.992202759,39.17056274,28.44613647,-76.74255371
0,40:06.4,0:27,60,0,40:06.9,1540932007,0.022584139,0.113016035,-0.186195973,-0.06741333,-0.22706604,-1.015365601,39.17056274,28.44613647,-76.74255371
0,40:06.4,0:27,60,0,40:06.9,1540932007,0.024099211,0.039653403,-0.236617335,-0.043533325,-0.217758179,-1.022247314,39.36325073,28.01904297,-76.98214722
0,40:06.4,0:27,60,0,40:06.9,1540932007,0.024099211,0.039653403,-0.236617335,-0.043533325,-0.217758179,-1.022247314,39.11837769,28.37739563,-77.29437256
0,40:06.4,0:27,60,0,40:06.9,1540932007,0.008658736,0.079804019,-0.232280644,-0.027633667,-0.223693848,-1.022628784,39.15200806,27.82577515,-77.78141785
0,40:06.4,0:27,60,0,40:06.9,1540932007,0.016617326,0.041669949,-0.181999097,0.002044678,-0.230484009,-1.043762207,38.94985962,27.63340759,-77.48736572
0,40:06.4,0:27,60,0,40:06.9,1540932007,0.034639204,-0.039940758,-0.102860336,0.021911621,-0.24571228,-1.065628052,38.94985962,27.63340759,-77.48736572
0,40:06.4,0:27,60,0,40:07.0,1540932007,0.029837791,-0.084523407,-0.032237299,0.021789551,-0.23638916,-1.083618164,38.74819946,27.75032043,-77.72814941
0,40:06.4,0:27,60,0,40:07.0,1540932007,-0.01917183,-0.134927192,-0.022649919,0.000152588,-0.218017578,-1.095489502,38.37588501,27.82347107,-77.90180969
0,40:06.4,0:27,60,0,40:07.0,1540932007,-0.093247656,-0.167656111,-0.045160554,-0.021255493,-0.210067749,-1.105209351,38.19950867,27.46986389,-77.92457581
0,40:06.4,0:27,60,0,40:07.0,1540932007,-0.176409921,-0.142173654,0.003079679,-0.003219604,-0.226730347,-1.141586304,38.26133728,27.4576416,-77.92166138
0,40:06.4,0:27,60,0,40:07.0,1540932007,-0.211308783,-0.135648909,0.078056453,0.030792236,-0.213668823,-1.194625854,37.94515991,27.20875549,-78.18228149
0,40:06.4,0:27,60,0,40:07.0,1540932007,-0.198449976,-0.212763668,0.127217874,0.039520264,-0.190856934,-1.257125854,37.94515991,27.20875549,-78.18228149
0,40:06.4,0:27,60,0,40:07.1,1540932007,-0.136566634,-0.367835011,0.07882291,0.036849976,-0.143798828,-1.263626099,37.74612427,27.32595825,-78.11068726
0,40:06.4,0:27,60,0,40:07.1,1540932007,-0.162740714,-0.367253909,-0.003626426,0.018127441,-0.106216431,-1.198364258,37.12710571,27.44798279,-78.21786499
0,40:06.4,0:27,60,0,40:07.1,1540932007,-0.273297319,-0.241790526,-0.007728493,0.026107788,-0.132202148,-1.174057007,36.98612976,27.24333191,-77.99900818
0,40:06.4,0:27,60,0,40:07.1,1540932007,-0.298074039,-0.066511916,0.037469878,0.031661987,-0.148178101,-1.193099976,36.81988525,27.50923157,-77.99813843
0,40:06.4,0:27,60,0,40:07.1,1540932007,-0.201696636,0.227315446,0.169525117,0.02822876,-0.162200928,-1.219543457,37.04797363,27.23112488,-77.99610901
0,40:06.4,0:27,60,0,40:07.1,1540932007,0.056972473,0.515194372,0.317596874,0.046310425,-0.14630127,-1.240509033,37.47445679,26.83576965,-78.14372253
0,40:06.4,0:27,60,0,40:07.2,1540932007,0.388157859,0.65550115,0.409784325,0.069580078,-0.09475708,-1.221908569,37.47445679,26.83576965,-78.14372253
0,40:06.4,0:27,60,0,40:07.2,1540932007,0.64800515,0.596699085,0.425712159,0.051528931,-0.063308716,-1.165588379,38.05300903,26.25498962,-78.28997803
0,40:06.4,0:27,60,0,40:07.2,1540932007,0.698376179,0.459962808,0.418035331,0.047180176,-0.058883667,-1.068878174,38.43186951,25.79135132,-78.44276428
0,40:06.4,0:27,60,0,40:07.2,1540932007,0.596097744,0.228608411,0.365302345,0.050491333,-0.050430298,-0.99005127,38.58348083,24.90548706,-79.01390076
0,40:06.4,0:27,60,0,40:07.2,1540932007,0.430021686,-0.063686834,0.287879724,0.055450439,-0.047866821,-0.938842773,38.6184082,24.35400391,-79.3447876
0,40:06.4,0:27,60,0,40:07.2,1540932007,0.205800301,-0.24964046,0.264145366,0.061355591,-0.08505249,-0.851638794,38.53291321,23.82725525,-79.29100037
0,40:06.4,0:27,60,0,40:07.3,1540932007,0.205800301,-0.24964046,0.264145366,0.061355591,-0.08505249,-0.851638794,38.53291321,23.82725525,-79.29100037
0,40:06.4,0:27,60,0,40:07.3,1540932007,0.14823128,0.029697442,0.33196809,0.070785522,-0.074691772,-0.807281494,38.38363647,23.31253052,-79.47438049
0,40:06.4,0:27,60,0,40:07.3,1540932007,0.103703759,0.46882128,0.441748384,0.087203979,-0.061157227,-0.807998657,38.71011353,23.48054504,-79.68455505
0,40:06.4,0:27,60,0,40:07.3,1540932007,0.1406695,0.712597459,0.520213099,0.102325439,-0.037033081,-0.90322876,39.32406616,23.04873657,-79.58918762
0,40:06.4,0:27,60,0,40:07.3,1540932007,0.332652789,0.263281171,0.441439723,0.104858398,0.027069092,-1.021697998,39.70292664,22.58509827,-79.7419281
0,40:06.4,0:27,60,0,40:07.3,1540932007,0.332652789,0.263281171,0.441439723,0.104858398,0.027069092,-1.021697998,39.87637329,21.92877197,-79.99111938
0,40:06.4,0:27,60,0,40:07.4,1540932007,0.354170864,-0.160406454,0.31347936,0.086853027,0.020507813,-0.97114563,39.70915222,21.18490601,-80.02790833
0,40:06.4,0:27,60,0,40:07.4,1540932007,0.048117995,-0.328900661,0.177345756,0.051071167,-0.059432983,-0.753631592,39.70915222,21.18490601,-80.02790833
0,40:06.4,0:27,60,0,40:07.4,1540932007,0.048117995,-0.328900661,0.177345756,0.051071167,-0.059432983,-0.753631592,39.41792297,21.4750824,-80.18907166
0,40:06.4,0:27,60,0,40:07.4,1540932007,-0.065101505,-0.155743791,0.15402765,0.027359009,-0.087783813,-0.748275757,39.29423523,21.49949646,-80.19488525
0,40:06.4,0:27,60,0,40:07.4,1540932007,0.184426569,-0.00829841,0.009583119,0.028335571,-0.082107544,-0.867324829,39.02764893,21.31910706,-80.21609497
0,40:06.4,0:27,60,0,40:07.4,1540932007,0.184426569,-0.00829841,0.009583119,0.028335571,-0.082107544,-0.867324829,39.07807922,20.68722534,-80.39300537
0,40:06.4,0:27,60,0,40:07.5,1540932007,0.220699355,0.028256672,-0.022506374,0.076522827,-0.168655396,-0.831695557,38.96224976,20.32128906,-80.56906128
0,40:06.4,0:27,60,0,40:07.5,1540932007,0.061188789,0.000541421,-0.011793543,0.076522827,-0.168655396,-0.831695557,38.96224976,20.32128906,-80.56906128
0,40:06.4,0:27,60,0,40:07.5,1540932007,0.061188789,0.000541421,-0.011793543,0.089996338,-0.214599609,-0.839050293,38.7915802,20.27748108,-80.50192261
0,40:06.4,0:27,60,0,40:07.5,1540932008,-0.178487986,-0.02327949,0.028927522,0.092575073,-0.23651123,-0.904846191,38.80513,20.19692993,-80.58222961
0,40:06.4,0:27,60,0,40:07.5,1540932008,-0.178487986,-0.02327949,0.028927522,0.092575073,-0.23651123,-0.904846191,38.64604187,20.07237244,-80.82969666
0,40:06.4,0:27,60,0,40:07.5,1540932008,-0.220531576,-0.008823585,0.031097199,0.096359253,-0.219207764,-0.953689575,38.65960693,19.99182129,-80.91003418
0,40:06.4,0:27,60,0,40:07.6,1540932008,-0.219050592,-0.299687914,0.005037369,0.106338501,-0.208297729,-1.107040405,38.31762695,19.9041748,-80.8538208
0,40:06.4,0:27,60,0,40:07.6,1540932008,-0.219050592,-0.299687914,0.005037369,0.106338501,-0.208297729,-1.107040405,38.31762695,19.9041748,-80.8538208
0,40:06.4,0:27,60,0,40:07.6,1540932008,-0.165997228,-0.418415897,-0.184664389,-0.010742188,-0.155975342,-1.107513428,37.70822144,20.33642578,-80.4025116
0,40:06.4,0:27,60,0,40:07.6,1540932008,-0.077466829,-0.242282145,-0.354735454,-0.046386719,-0.129379272,-1.116012573,37.16264343,20.36549377,-80.82141113
0,40:06.4,0:27,60,0,40:07.6,1540932008,-0.077466829,-0.242282145,-0.354735454,-0.046386719,-0.129379272,-1.116012573,36.90959167,20.10452271,-80.92294312
0,40:06.4,0:27,60,0,40:07.6,1540932008,0.143241848,-0.37853932,-0.620530382,0.005630493,-0.148483276,-1.207351685,36.39631653,19.9730072,-80.87771606
0,40:06.4,0:27,60,0,40:07.7,1540932008,0.078804801,-0.616840839,-0.64972209,0.018615723,-0.18888855,-1.185775757,35.75871277,19.86584473,-80.91638184
0,40:06.4,0:27,60,0,40:07.7,1540932008,0.078804801,-0.616840839,-0.64972209,0.018615723,-0.18888855,-1.185775757,35.75871277,19.86584473,-80.91638184
0,40:06.4,0:27,60,0,40:07.7,1540932008,-0.539216351,-0.113619241,-0.315914555,-0.015090942,-0.248306274,-1.202819824,35.05859375,19.77084351,-81.03605652
0,40:06.4,0:27,60,0,40:07.7,1540932008,-0.587350325,0.292855308,-0.14727627,-0.035736084,-0.18258667,-1.303222656,34.95483398,20.02459717,-80.95420837
0,40:06.4,0:27,60,0,40:07.7,1540932008,-0.329715588,0.534005877,-0.212363395,-0.034011841,-0.033706665,-1.386810303,35.01274109,20.40313721,-80.3125
0,40:06.4,0:27,60,0,40:07.7,1540932008,0.128269556,0.422134469,-0.383949532,-0.011688232,0.049072266,-1.427276611,35.30641174,20.42247009,-80.4519043
0,40:06.4,0:27,60,0,40:07.8,1540932008,0.467107004,0.211710121,-0.508510636,0.019897461,0.050048828,-1.327285767,35.37103271,19.71011353,-80.63102722
0,40:06.4,0:27,60,0,40:07.8,1540932008,0.510261665,0.212227574,-0.471040226,0.019851685,-0.029632568,-1.149185181,35.37103271,19.71011353,-80.63102722
0,40:06.4,0:27,60,0,40:07.8,1540932008,0.426116161,0.255918329,-0.375659378,0.012741089,-0.080276489,-1.03338623,35.18896484,19.04667664,-80.74371338
0,40:06.4,0:27,60,0,40:07.8,1540932008,0.35934219,0.110537697,-0.374751773,-0.008895874,-0.069580078,-0.990249634,35.29273987,18.79292297,-80.82557678
0,40:06.4,0:27,60,0,40:07.8,1540932008,0.30213243,-0.036926593,-0.41668351,-0.017059326,-0.051651001,-0.941513062,35.27478027,18.56378174,-80.67893982
0,40:06.4,0:27,60,0,40:07.8,1540932008,0.271962809,-0.112208298,-0.452107548,-0.024291992,-0.049133301,-0.902618408,34.91096497,18.24661255,-80.94473267
0,40:06.4,0:27,60,0,40:07.9,1540932008,0.256430455,-0.073284068,-0.411363047,-0.018768311,-0.069961548,-0.857055664,34.7127533,17.66346741,-81.28947449
0,40:06.4,0:27,60,0,40:07.9,1540932008,0.234078544,0.046436475,-0.27306882,-0.009750366,-0.114257813,-0.82170105,34.84815979,17.24905396,-80.98529053
0,40:06.4,0:27,60,0,40:07.9,1540932008,0.223829102,0.112969163,-0.116638466,-0.006942749,-0.137039185,-0.809326172,34.84815979,17.24905396,-80.98529053
0,40:06.4,0:27,60,0,40:07.9,1540932008,0.198156496,0.100863764,-0.003135872,-0.004776001,-0.124938965,-0.80279541,34.75158691,17.11236572,-81.15174866
0,40:06.4,0:27,60,0,40:07.9,1540932008,0.180636624,0.041402035,0.032133435,-0.026092529,-0.108978271,-0.789871216,34.55252075,17.22953796,-81.08016968
0,40:06.4,0:27,60,0,40:07.9,1540932008,0.156219432,-0.09023855,0.011630557,-0.047439575,-0.100006104,-0.773376465,34.77360535,16.64151001,-81.32420349
0,40:06.4,0:27,60,0,40:08.0,1540932008,0.102454204,-0.093963247,-0.009778329,-0.067443848,-0.115814209,-0.753067017,34.63069153,16.43666077,-81.33961487
0,40:06.4,0:27,60,0,40:08.0,1540932008,0.006762299,0.048551824,0.013979465,-0.068099976,-0.144180298,-0.741744995,34.61404419,16.2076416,-81.0368042
0,40:06.4,0:27,60,0,40:08.0,1540932008,-0.043060119,0.136541867,0.038729819,-0.06477356,-0.156570435,-0.794021606,34.61404419,16.2076416,-81.0368042
0,40:06.4,0:27,60,0,40:08.0,1540932008,0.017087907,0.142432779,0.044076914,-0.057266235,-0.154418945,-0.880508423,34.4606781,16.39291382,-81.1943512
0,40:06.4,0:27,60,0,40:08.0,1540932008,0.139121671,0.002824016,0.041733598,-0.047714233,-0.152374268,-0.946121216,34.85437012,15.84886169,-81.27127075
0,40:06.4,0:27,60,0,40:08.0,1540932008,0.157925453,-0.126055138,0.038357509,-0.042633057,-0.166534424,-0.9400177,34.54779053,15.91017151,-80.97341919
0,40:06.4,0:27,60,0,40:08.1,1540932008,0.001840777,-0.119316008,0.080167008,-0.034088135,-0.20199585,-0.908569336,34.48271179,15.92207336,-81.36682129
0,40:06.4,0:27,60,0,40:08.1,1540932008,-0.150772468,-0.074852403,0.146652025,-0.031494141,-0.218734741,-0.950149536,34.40098572,15.7049408,-81.45741272
0,40:06.4,0:27,60,0,40:08.1,1540932008,-0.144579021,-0.079401083,0.18733767,-0.046829224,-0.20640564,-1.046722412,34.40098572,15.7049408,-81.45741272
0,40:06.4,0:27,60,0,40:08.1,1540932008,-0.057466223,-0.119218004,0.1979762,-0.059707642,-0.182891846,-1.108032227,34.28056335,15.72969055,-81.07275391
0,40:06.4,0:27,60,0,40:08.1,1540932008,-0.030520625,-0.164959926,0.211834491,-0.058319092,-0.179748535,-1.131896973,34.23097229,15.66120911,-81.31216431
0,40:06.4,0:27,60,0,40:08.1,1540932008,-0.111600032,-0.261552246,0.218160031,-0.063430786,-0.188430786,-1.153335571,34.09635925,15.76643372,-80.92527771
0,40:06.4,0:27,60,0,40:08.2,1540932008,-0.243441952,-0.261436932,0.235325702,-0.083251953,-0.194595337,-1.161346436,33.84640503,15.8150177,-81.2492981
0,40:06.4,0:27,60,0,40:08.2,1540932008,-0.294554938,-0.097559048,0.219477231,-0.108505249,-0.176742554,-1.179489136,34.05000305,15.69828796,-80.77420044
0,40:06.4,0:27,60,0,40:08.2,1540932008,-0.184664389,0.142640772,0.205825867,-0.095840454,-0.152893066,-1.207824707,34.07643127,15.53710938,-81.01295471
0,40:06.4,0:27,60,0,40:08.2,1540932008,0.011330685,0.249809304,0.254099656,-0.046554565,-0.16204834,-1.223297119,34.07643127,15.53710938,-81.01295471
0,40:06.4,0:27,60,0,40:08.2,1540932008,0.058682755,0.27151167,0.393327055,0.007156372,-0.169067383,-1.169998169,34.21936035,15.74195862,-80.99755859
0,40:06.4,0:27,60,0,40:08.2,1540932008,-0.286782236,0.02000247,0.554800105,0.008926392,-0.151626587,-1.092971802,34.57814026,15.74935913,-80.74357605
0,40:06.4,0:27,60,0,40:08.3,1540932008,-0.286782236,0.02000247,0.554800105,0.008926392,-0.151626587,-1.092971802,34.67341614,15.88594055,-80.73330688
0,40:06.4,0:27,60,0,40:08.3,1540932008,-0.532689742,0.092907304,0.494980979,-0.015625,-0.08354187,-1.073577881,34.76805115,16.02243042,-80.80114746
0,40:06.4,0:27,60,0,40:08.3,1540932008,-0.25050865,0.298208528,0.139640189,-0.003662109,0.042953491,-1.217819214,35.14736938,16.25924683,-80.38137817
0,40:06.4,0:27,60,0,40:08.3,1540932008,-0.25050865,0.298208528,0.139640189,-0.003662109,0.042953491,-1.217819214,35.14736938,16.25924683,-80.38137817
0,40:06.4,0:27,60,0,40:08.3,1540932008,0.155646852,0.275590834,-0.0478863,0.051620483,0.056121826,-1.220443726,35.35343933,16.45201111,-80.20689392
0,40:06.4,0:27,60,0,40:08.3,1540932008,0.77198968,0.080954505,-0.188557664,0.150482178,-0.040023804,-1.00604248,35.32652283,15.91273499,-80.54067993
0,40:06.4,0:27,60,0,40:08.4,1540932008,0.77198968,0.080954505,-0.188557664,0.150482178,-0.040023804,-1.00604248,35.36341858,15.36143494,-80.63723755
0,40:06.4,0:27,60,0,40:08.4,1540932008,0.32945593,0.06045136,0.050325755,0.202590942,-0.144989014,-0.730117798,35.38609314,14.89060974,-80.7315979
0,40:06.4,0:27,60,0,40:08.4,1540932008,0.002459163,0.288204896,0.140637809,0.146392822,-0.137298584,-0.703170776,35.60847473,14.3026886,-80.81945801
0,40:06.4,0:27,60,0,40:08.4,1540932008,0.002459163,0.288204896,0.140637809,0.146392822,-0.137298584,-0.703170776,35.60847473,14.3026886,-80.81945801
0,40:06.4,0:27,60,0,40:08.4,1540932008,-0.283187235,0.193533248,0.157723585,0.066329956,-0.082168579,-1.016281128,35.7539978,14.50779724,-80.4916687
0,40:06.4,0:27,60,0,40:08.4,1540932008,-0.45425592,-0.595575498,0.180350334,0.066329956,-0.082168579,-1.016281128,35.75840759,14.81747437,-80.55795288
0,40:06.4,0:27,60,0,40:08.5,1540932008,-0.45425592,-0.595575498,0.180350334,0.150741577,-0.098007202,-1.127044678,35.10447693,15.49101257,-80.33425903
0,40:06.4,0:27,60,0,40:08.5,1540932008,-0.30421875,-1.691090248,0.050459446,0.07421875,-0.117126465,-0.945999146,33.96583557,15.17164612,-80.56422424
0,40:06.4,0:27,60,0,40:08.5,1540932008,-0.036136965,-1.344149334,0.012271846,-0.019882202,-0.128585815,-0.775497437,32.8405304,15.47215271,-80.38006592
0,40:06.4,0:27,60,0,40:08.5,1540932009,0.157688165,-0.818132941,2.37E-05,-0.072143555,-0.15814209,-0.66708374,32.1237793,15.14811707,-80.19694519
0,40:06.4,0:27,60,0,40:08.5,1540932009,0.183737343,-0.310945363,-0.040049682,-0.094573975,-0.181716919,-0.625793457,32.1237793,15.14811707,-80.19694519
0,40:06.4,0:27,60,0,40:08.5,1540932009,0.183737343,-0.310945363,-0.040049682,-0.094573975,-0.181716919,-0.625793457,31.92668152,15.26551819,-79.8910675
0,40:06.4,0:27,60,0,40:08.6,1540932009,0.020416858,0.299544903,-0.303760154,-0.056228638,-0.162124634,-0.684448242,31.80107117,15.28973389,-80.13116455
0,40:06.4,0:27,60,0,40:08.6,1540932009,-0.003925499,0.395045859,-0.325053725,0.009994507,-0.212341309,-0.781036377,32.04969788,15.24102783,-79.96334839
0,40:06.4,0:27,60,0,40:08.6,1540932009,-0.003925499,0.395045859,-0.325053725,0.009994507,-0.212341309,-0.781036377,32.23521423,15.20440674,-79.95462036
0,40:06.4,0:27,60,0,40:08.6,1540932009,0.170331256,0.3505479,-0.164521304,0.095855713,-0.274673462,-0.942092896,32.5045929,14.68466187,-80.11543274
0,40:06.4,0:27,60,0,40:08.6,1540932009,0.165935709,0.355586867,-0.061711301,0.080459595,-0.291229248,-0.971084595,32.5045929,14.68466187,-80.11543274
0,40:06.4,0:27,60,0,40:08.6,1540932009,0.010690728,0.444610217,-0.042288601,0.045471191,-0.281936646,-1.022491455,32.81378174,14.62361145,-80.10089111
0,40:06.4,0:27,60,0,40:08.7,1540932009,-0.126753418,0.497099257,-0.125717981,0.028015137,-0.228302002,-1.132614136,33.24858093,14.53833008,-79.84623718
0,40:06.4,0:27,60,0,40:08.7,1540932009,-0.146003812,0.557149545,-0.219875107,0.039123535,-0.186828613,-1.274291992,33.28770447,14.99693298,-79.7489624
0,40:06.4,0:27,60,0,40:08.7,1540932009,0.000808269,0.574273405,-0.256298629,0.063232422,-0.168914795,-1.41947937,33.91456604,14.48451233,-79.81201172
0,40:06.4,0:27,60,0,40:08.7,1540932009,0.302616593,0.376733964,-0.26839444,0.09312439,-0.145782471,-1.5234375,33.94491577,14.32371521,-79.58216858
0,40:06.4,0:27,60,0,40:08.7,1540932009,0.55617616,-0.011821506,-0.272147367,0.105239868,-0.128204346,-1.522094727,33.94491577,14.32371521,-79.58216858
0,40:06.4,0:27,60,0,40:08.7,1540932009,0.546377591,-0.15129791,-0.261608439,0.052764893,-0.149246216,-1.384094238,33.87736511,14.02610779,-79.67497253
0,40:06.4,0:27,60,0,40:08.8,1540932009,0.314899092,0.139379465,-0.177666933,-0.010803223,-0.162628174,-1.251846313,33.8155365,14.03831482,-79.67788696
0,40:06.4,0:27,60,0,40:08.8,1540932009,0.102629973,0.557609473,-0.120344255,-0.0418396,-0.10874939,-1.191085815,34.05847168,13.67979431,-79.59996033
0,40:06.4,0:27,60,0,40:08.8,1540932009,0.123602899,0.649447784,-0.1459367,-0.027038574,-0.02961731,-1.229278564,34.67112732,13.24784851,-79.6607666
0,40:06.4,0:27,60,0,40:08.8,1540932009,0.266900939,0.525897616,-0.157903082,0.001464844,0.008651733,-1.220230103,35.08668518,12.93328857,-79.41571045
0,40:06.4,0:27,60,0,40:08.8,1540932009,0.306407336,0.369556744,-0.105633219,0.030761719,-0.014923096,-1.116943359,35.34886169,12.80403137,-79.32820129
0,40:06.4,0:27,60,0,40:08.8,1540932009,0.178617149,0.252643706,-0.04470755,0.037078857,-0.055892944,-0.973999023,35.34886169,12.80403137,-79.32820129
0,40:06.4,0:27,60,0,40:08.9,1540932009,-0.04495123,0.27171407,0.050676493,0.04019165,-0.088043213,-0.830764771,35.29208374,13.12599182,-79.31929016
0,40:06.4,0:27,60,0,40:08.9,1540932009,-0.271929786,0.478051264,0.117379091,0.031005859,-0.107376099,-0.711013794,35.60630798,13.37471008,-79.29293823
0,40:06.4,0:27,60,0,40:08.9,1540932009,-0.39055577,0.763460374,0.165948492,0.021499634,-0.097244263,-0.684020996,36.12724304,13.81622314,-79.01399231
0,40:06.4,0:27,60,0,40:08.9,1540932009,-0.313446071,0.880731341,0.137161318,0.007568359,-0.062652588,-0.743011475,36.99052429,13.33578491,-78.67268372
0,40:06.4,0:27,60,0,40:08.9,1540932009,-0.111865815,0.764587157,0.026670759,0.001052856,-0.028289795,-0.811813354,37.57002258,13.76477051,-78.78129578
0,40:06.4,0:27,60,0,40:08.9,1540932009,0.036353747,0.479022519,-0.05403181,0.030929565,-0.034698486,-0.84564209,37.57002258,13.76477051,-78.78129578
0,40:06.4,0:27,60,0,40:09.0,1540932009,0.034313233,0.267038092,-0.052151086,0.046325684,-0.074935913,-0.831893921,37.70855713,13.65991211,-78.69960022
0,40:06.4,0:27,60,0,40:09.0,1540932009,-0.027831099,0.163808642,-0.054405185,0.023223877,-0.112579346,-0.811569214,37.71296692,13.96961975,-78.76589966
0,40:06.4,0:27,60,0,40:09.0,1540932009,-0.028092621,0.017948108,-0.09313607,-0.004348755,-0.116516113,-0.809432983,37.79223633,13.87722778,-78.3747406
0,40:06.4,0:27,60,0,40:09.0,1540932009,0.041726674,0.027260916,-0.155251373,-0.032363892,-0.107437134,-0.798355103,37.83613586,13.63587952,-78.22521973
0,40:06.4,0:27,60,0,40:09.0,1540932009,0.121056384,0.278411654,-0.129259986,-0.008148193,-0.155822754,-0.816589355,37.75309753,13.41864014,-78.47200012
0,40:06.4,0:27,60,0,40:09.0,1540932009,0.121056384,0.278411654,-0.129259986,-0.008148193,-0.155822754,-0.816589355,37.92698669,13.4627533,-78.14866638
0,40:06.4,0:27,60,0,40:09.1,1540932009,0.082416314,0.326219124,-0.090640688,0.012786865,-0.177062988,-0.87348938,37.92698669,13.4627533,-78.14866638
0,40:06.4,0:27,60,0,40:09.1,1540932009,0.14293878,0.264982398,-0.069313561,0.049285889,-0.171920776,-1.003051758,38.02163696,13.59925842,-78.2164917
0,40:06.4,0:27,60,0,40:09.1,1540932009,0.14293878,0.264982398,-0.069313561,0.049285889,-0.171920776,-1.003051758,38.27027893,13.55053711,-78.04867554
0,40:06.4,0:27,60,0,40:09.1,1540932009,0.166671007,0.222370489,-0.019041335,0.077865601,-0.181686401,-1.046646118,38.31286621,13.30906677,-78.05534363
0,40:06.4,0:27,60,0,40:09.1,1540932009,-0.131432326,-0.036121519,0.152049454,0.109466553,-0.218734741,-1.08442688,38.43717957,13.28469849,-77.97140503
0,40:06.4,0:27,60,0,40:09.1,1540932009,-0.131432326,-0.036121519,0.152049454,0.143188477,-0.243377686,-1.156295776,38.47193909,13.43360901,-77.80787659
0,40:06.4,0:27,60,0,40:09.2,1540932009,-0.238113233,-0.129810195,0.3050928,0.147140503,-0.19418335,-1.247879028,38.47193909,13.43360901,-77.80787659
0,40:06.4,0:27,60,0,40:09.2,1540932009,-0.238113233,-0.129810195,0.3050928,0.147140503,-0.19418335,-1.247879028,38.35395813,13.76785278,-77.7237854
0,40:06.4,0:27,60,0,40:09.2,1540932009,-0.122770395,-0.195835284,0.310337896,0.14932251,-0.148956299,-1.287384033,38.20513916,13.95358276,-77.33467102
0,40:06.4,0:27,60,0,40:09.2,1540932009,0.213278457,-0.482924316,0.159982212,0.127883911,-0.155792236,-1.312133789,38.08016968,13.9778595,-77.49667358
0,40:06.4,0:27,60,0,40:09.2,1540932009,0.213278457,-0.482924316,0.159982212,0.127883911,-0.155792236,-1.312133789,37.63722229,13.44381714,-77.54064941
0,40:06.4,0:27,60,0,40:09.2,1540932009,0.32813953,-0.616777722,0.088041709,0.127944946,-0.152893066,-1.25994873,37.31008911,13.27575684,-77.40859985
0,40:06.4,0:27,60,0,40:09.3,1540932009,0.068304223,-0.548386946,0.108535,0.135284424,-0.186920166,-1.057540894,37.31008911,13.27575684,-77.40859985
0,40:06.4,0:27,60,0,40:09.3,1540932009,-0.260083247,-0.338229981,0.274856867,0.144714355,-0.215454102,-1.027542114,36.66529846,13.55903625,-77.19892883
0,40:06.4,0:27,60,0,40:09.3,1540932009,-0.465791668,-0.321571375,0.389509147,0.141662598,-0.183456421,-1.066711426,36.42300415,13.9176178,-77.19876099
0,40:06.4,0:27,60,0,40:09.3,1540932009,-0.55375295,-0.359802118,0.423750741,0.142349243,-0.120773315,-1.085617065,36.16340637,14.04716492,-76.97390747
0,40:06.4,0:27,60,0,40:09.3,1540932009,-0.55375295,-0.359802118,0.423750741,0.142349243,-0.120773315,-1.085617065,36.09439087,14.4498291,-76.72848511
0,40:06.4,0:27,60,0,40:09.3,1540932009,-0.456822941,-0.531765892,0.187925696,0.101333618,-0.026687622,-1.053237915,35.74195862,14.75227356,-76.81445313
0,40:06.4,0:27,60,0,40:09.4,1540932009,-0.326235902,-0.585379852,0.028269721,0.096206665,-0.034378052,-0.983932495,35.74195862,14.75227356,-76.81445313
0,40:06.4,0:27,60,0,40:09.4,1540932009,-0.201635916,-0.475926062,-0.053010754,0.109817505,-0.06741333,-0.881668091,35.1653595,15.33322144,-76.43388367
0,40:06.4,0:27,60,0,40:09.4,1540932009,-0.12311847,-0.192443482,0.004075702,0.127914429,-0.108764648,-0.799545288,34.95146179,15.53085327,-76.43815613
0,40:06.4,0:27,60,0,40:09.4,1540932009,-0.096787796,0.157333965,0.107303554,0.118148804,-0.128143311,-0.763565063,34.84899902,15.784729,-76.20011902
0,40:06.4,0:27,60,0,40:09.4,1540932009,-0.088881403,0.326980788,0.129999013,0.101425171,-0.110214233,-0.775421143,35.07449341,15.50637817,-76.51043701
0,40:06.4,0:27,60,0,40:09.4,1540932009,-0.04004622,0.232741903,0.047414654,0.091644287,-0.071258545,-0.81741333,35.37402344,15.52626038,-75.94699097
0,40:06.4,0:27,60,0,40:09.5,1540932009,0.061653511,-0.077056169,-0.08256625,0.084671021,-0.059661865,-0.825561523,35.31217957,15.53848267,-75.9499054
0,40:06.4,0:27,60,0,40:09.5,1540932009,0.144412573,-0.362155287,-0.122559739,0.093811035,-0.102249146,-0.786056519,35.31217957,15.53848267,-75.9499054
0,40:06.4,0:27,60,0,40:09.5,1540932009,0.1334526,-0.507127124,-0.08739749,0.081924438,-0.156433105,-0.725158691,34.83804321,15.86555481,-75.80740356
0,40:06.4,0:27,60,0,40:09.5,1540932010,0.005056278,-0.588152735,-0.073545324,0.041122437,-0.182403564,-0.688796997,34.49412537,15.77770996,-75.98550415
0,40:06.4,0:27,60,0,40:09.5,1540932010,-0.272760693,-0.642764315,-0.085325284,0.010818481,-0.202209473,-0.676239014,34.11152649,15.93170166,-75.68832397
0,40:06.4,0:27,60,0,40:09.5,1540932010,-0.575779955,-0.478447542,-0.147159624,-0.001724243,-0.206954956,-0.688339233,33.7442627,16.31460571,-75.85018921
0,40:06.4,0:27,60,0,40:09.6,1540932010,-0.705045001,-0.127439981,-0.24842739,0.00088501,-0.199356079,-0.776916504,33.70492554,16.55641174,-75.45303345
0,40:06.4,0:27,60,0,40:09.6,1540932010,-0.581283111,0.228551686,-0.310128038,0.036636353,-0.190261841,-0.929962158,33.70492554,16.55641174,-75.45303345
0,40:06.4,0:27,60,0,40:09.6,1540932010,-0.2478114,0.489036537,-0.253131331,0.079788208,-0.209243774,-1.109649658,33.5443573,17.13212585,-75.36225891
0,40:06.4,0:27,60,0,40:09.6,1540932010,0.187426353,0.486615191,-0.151507234,0.12449646,-0.203170776,-1.247894287,33.88894653,17.220047,-75.10606384
0,40:06.4,0:27,60,0,40:09.6,1540932010,0.542844109,0.279766937,-0.128288997,0.127319336,-0.176177979,-1.310577393,34.05259705,16.95388794,-75.41932678
0,40:06.4,0:27,60,0,40:09.6,1540932010,0.656697974,0.144944407,-0.225931135,0.071807861,-0.148712158,-1.266799927,34.16679382,16.30999756,-75.35900879
0,40:06.4,0:27,60,0,40:09.7,1540932010,0.541678177,0.346308946,-0.266347801,0.03553772,-0.166870117,-1.217544556,34.29832458,15.8952179,-75.5234375
0,40:06.4,0:27,60,0,40:09.7,1540932010,0.37489585,0.659370456,-0.255212858,0.012451172,-0.183288574,-1.266983032,34.29832458,15.8952179,-75.5234375
0,40:06.4,0:27,60,0,40:09.7,1540932010,0.357218053,0.681240868,-0.272315412,0.023910522,-0.146286011,-1.409240723,34.7381897,16.11967468,-75.25695801
0,40:06.4,0:27,60,0,40:09.7,1540932010,0.420035365,0.27980209,-0.383124485,0.031082153,-0.093154907,-1.51159668,35.08798218,15.81697083,-75.48338318
0,40:06.4,0:27,60,0,40:09.7,1540932010,0.317082351,-0.121534155,-0.392161656,0.072021484,-0.096389771,-1.461730957,34.93281555,15.6927948,-75.26226807
0,40:06.4,0:27,60,0,40:09.7,1540932010,-0.013559751,-0.143940128,-0.216488365,0.093917847,-0.162109375,-1.33303833,34.88322449,15.62432861,-75.50170898
0,40:06.4,0:27,60,0,40:09.8,1540932010,-0.402355437,0.177619795,0.095622663,0.11541748,-0.179641724,-1.260162354,35.16401672,15.72425842,-75.48269653
0,40:06.4,0:27,60,0,40:09.8,1540932010,-0.500973891,0.370548772,0.231883833,0.085891724,-0.064025879,-1.321624756,35.36224365,16.30740356,-75.13796997
0,40:06.4,0:27,60,0,40:09.8,1540932010,-0.264629529,0.36964889,0.160078086,0.045425415,0.075286865,-1.349075317,35.36224365,16.30740356,-75.13796997
0,40:06.4,0:27,60,0,40:09.8,1540932010,0.131433658,0.276951975,-0.059658271,0.029510498,0.161148071,-1.276657104,35.47741699,16.67329407,-75.0400238
0,40:06.4,0:27,60,0,40:09.8,1540932010,0.385733051,0.256800634,-0.228940507,0.056045532,0.13381958,-1.119781494,35.73388672,16.23419189,-75.04241943
0,40:06.4,0:27,60,0,40:09.8,1540932010,0.41146984,0.397407018,-0.28981238,0.08972168,0.039871216,-0.952606201,35.93165588,16.11688232,-75.27018738
0,40:06.4,0:27,60,0,40:09.9,1540932010,0.336866975,0.435786631,-0.241558298,0.133270264,-0.041442871,-0.873062134,36.3581543,15.7215271,-75.41784668
0,40:06.4,0:27,60,0,40:09.9,1540932010,0.286276235,0.233745649,-0.175401915,0.157775879,-0.069656372,-0.841217041,36.572052,15.52391052,-75.41355896
0,40:06.4,0:27,60,0,40:09.9,1540932010,0.234776292,-0.063459667,-0.111504424,0.154937744,-0.076446533,-0.782409668,36.572052,15.52391052,-75.41355896
0,40:06.4,0:27,60,0,40:09.9,1540932010,0.12956332,-0.245477406,-0.052806223,0.119720459,-0.094314575,-0.716064453,36.12695313,15.69006348,-75.19740295
0,40:06.4,0:27,60,0,40:09.9,1540932010,-0.003753992,-0.289685348,-0.037836595,0.064224243,-0.093643188,-0.658187866,36.18812561,15.67779541,-75.27258301
0,40:06.4,0:27,60,0,40:09.9,1540932010,-0.101111438,-0.221596841,-0.061288125,-0.018310547,-0.080413818,-0.672927856,35.97619629,15.87559509,-75.04258728
0,40:06.4,0:27,60,0,40:10.0,1540932010,-0.101111438,-0.221596841,-0.061288125,-0.018310547,-0.080413818,-0.672927856,35.85057068,15.89981079,-75.28269958
0,40:06.4,0:27,60,0,40:10.0,1540932010,-0.012730975,-0.257855513,-0.132031005,-0.046478271,-0.069000244,-0.705108643,35.7063446,15.69487,-75.45429993
0,40:06.4,0:27,60,0,40:10.0,1540932010,0.137088081,-0.053363623,-0.237830139,-0.063827515,-0.110321045,-0.713027954,35.7063446,15.69487,-75.45429993
0,40:06.4,0:27,60,0,40:10.0,1540932010,0.137088081,-0.053363623,-0.237830139,-0.063827515,-0.110321045,-0.713027954,35.23416138,16.02212524,-75.07749939
0,40:06.4,0:27,60,0,40:10.0,1540932010,0.146461876,0.162718344,-0.20008569,-0.048614502,-0.155181885,-0.734649658,35.40483093,16.06591797,-75.14463806
0,40:06.4,0:27,60,0,40:10.0,1540932010,0.191087667,0.456883927,-0.028395689,-0.008148193,-0.180480957,-0.852386475,35.64579773,15.7071991,-75.30099487
0,40:06.4,0:27,60,0,40:10.1,1540932010,0.191087667,0.456883927,-0.028395689,-0.008148193,-0.180480957,-0.852386475,36.18243408,15.3679657,-75.36251831
0,40:06.4,0:27,60,0,40:10.1,1540932010,0.041049699,0.228615868,0.073090722,0.012741089,-0.201400757,-0.93522644,36.23448181,15.74595642,-75.42367554
0,40:06.4,0:27,60,0,40:10.1,1540932010,-0.168220701,0.088569547,0.163991601,0.034439087,-0.225509644,-0.975296021,36.59585571,15.75360107,-74.8572998
0,40:06.4,0:27,60,0,40:10.1,1540932010,-0.168220701,0.088569547,0.163991601,0.034439087,-0.225509644,-0.975296021,36.59585571,15.75360107,-74.8572998
0,40:06.4,0:27,60,0,40:10.1,1540932010,-0.485977364,0.099411276,0.379324687,0.060424805,-0.223068237,-1.134658813,36.49453735,16.31687927,-75.07601929
0,40:06.4,0:27,60,0,40:10.1,1540932010,-0.402040386,0.410745194,0.491058143,0.070602417,-0.216583252,-1.247467041,36.6245575,16.60232544,-74.90220642
0,40:06.4,0:27,60,0,40:10.2,1540932010,-0.402040386,0.410745194,0.491058143,0.070602417,-0.216583252,-1.247467041,37.21697998,16.95071411,-75.16923523
0,40:06.4,0:27,60,0,40:10.2,1540932010,0.325657996,0.874080629,0.536430685,0.139083862,-0.082794189,-1.452590942,37.86503601,16.66773987,-74.98840332
0,40:06.4,0:27,60,0,40:10.2,1540932010,0.619933302,0.63275589,0.402204436,0.179946899,-0.071868896,-1.470504761,38.69158936,16.03819275,-75.04493713
0,40:06.4,0:27,60,0,40:10.2,1540932010,0.573347956,0.277460639,0.375005838,0.222473145,-0.108963013,-1.401351929,38.69158936,16.03819275,-75.04493713
0,40:06.4,0:27,60,0,40:10.2,1540932010,0.151290453,0.041175933,0.429429932,0.270248413,-0.120178223,-1.268722534,38.64900208,16.27967834,-75.03825378
0,40:06.4,0:27,60,0,40:10.2,1540932010,-0.395318301,0.023280289,0.536625628,0.277175903,-0.131774902,-1.189071655,38.82357788,16.32383728,-74.6368103
0,40:06.4,0:27,60,0,40:10.3,1540932010,-0.642967248,0.051388889,0.593475595,0.256118774,-0.104888916,-1.225616455,39.11968994,16.65266418,-75.076828
0,40:06.4,0:27,60,0,40:10.3,1540932010,-0.452210612,0.010082462,0.457379275,0.21031189,-0.015258789,-1.282928467,39.49136353,16.57945251,-74.98127747
0,40:06.4,0:27,60,0,40:10.3,1540932010,-0.031177893,-0.111091634,0.266515047,0.187606812,0.04309082,-1.262008667,39.47846985,16.66007996,-74.82287598
0,40:06.4,0:27,60,0,40:10.3,1540932010,0.335766557,-0.374519013,0.075488366,0.185073853,0.023269653,-1.156646729,39.47846985,16.66007996,-74.82287598
0,40:06.4,0:27,60,0,40:10.3,1540932010,0.466167707,-0.66291326,-0.066252524,0.18901062,-0.040771484,-0.982910156,39.10745239,16.73335266,-74.84033203
0,40:06.4,0:27,60,0,40:10.3,1540932010,0.357179171,-0.811150665,-0.061054832,0.217391968,-0.140396118,-0.814682007,38.73072815,16.49679565,-74.94767761
0,40:06.4,0:27,60,0,40:10.4,1540932010,0.134403349,-0.718384242,-0.004131095,0.195449829,-0.194976807,-0.674926758,38.1716156,16.60643005,-75.28625488
0,40:06.4,0:27,60,0,40:10.4,1540932010,-0.086370309,-0.426458111,0.012345083,0.144088745,-0.185546875,-0.596801758,38.0267334,16.40141296,-75.53591919
0,40:06.4,0:27,60,0,40:10.4,1540932010,-0.198552508,-0.036963611,-0.017131583,0.104354858,-0.146911621,-0.589508057,38.05708313,16.24061584,-75.30610657
0,40:06.4,0:27,60,0,40:10.4,1540932010,0.024312797,0.236454883,0.046332878,0.140487671,-0.133575439,-0.750289917,38.20829773,16.75553894,-74.88839722
0,40:06.4,0:27,60,0,40:10.4,1540932010,0.024312797,0.236454883,0.046332878,0.140487671,-0.133575439,-0.750289917,38.20829773,16.75553894,-74.88839722
0,40:06.4,0:27,60,0,40:10.4,1540932010,0.214617494,-0.027348268,0.102717324,0.153900146,-0.130279541,-0.809753418,38.07485962,17.17015076,-74.95828247
0,40:06.4,0:27,60,0,40:10.5,1540932010,0.28459072,-0.418626553,0.138627122,0.13520813,-0.140060425,-0.79977417,38.00534058,16.87232971,-75.28538513
0,40:06.4,0:27,60,0,40:10.5,1540932010,0.14529914,-0.641319817,0.172653532,0.084838867,-0.173248291,-0.725067139,37.88693237,16.50611877,-75.77380371
0,40:06.4,0:27,60,0,40:10.5,1540932010,-0.118382304,-0.644274061,0.191988881,0.035827637,-0.207855225,-0.681732178,37.48310852,16.43067932,-75.72053528
0,40:06.4,0:27,60,0,40:10.5,1540932011,-0.328314233,-0.541720788,0.205016266,0.002471924,-0.222045898,-0.703567505,37.30900574,17.08694458,-75.54943848
0,40:06.4,0:27,60,0,40:10.5,1540932011,-0.456480725,-0.383635812,0.199887817,-0.016952515,-0.201416016,-0.757720947,37.30900574,17.08694458,-75.54943848
0,40:06.4,0:27,60,0,40:10.5,1540932011,-0.511517345,-0.308249445,0.143238386,-0.022506714,-0.185760498,-0.859313965,37.10212708,17.5945282,-75.30764771
0,40:06.4,0:27,60,0,40:10.6,1540932011,-0.430321292,-0.22526934,0.024455542,-0.011581421,-0.167282104,-0.972473145,37.02020264,18.07778931,-74.90380859
0,40:06.4,0:27,60,0,40:10.6,1540932011,-0.17656252,-0.176462385,-0.077277212,0.01385498,-0.145812988,-1.074752808,37.05889893,17.8359375,-75.37904358
0,40:06.4,0:27,60,0,40:10.6,1540932011,0.126780849,-0.113194466,-0.1276027,0.032028198,-0.157775879,-1.125793457,36.97779846,17.61888123,-75.39154053
0,40:06.4,0:27,60,0,40:10.6,1540932011,0.314659673,-0.102937301,-0.168328026,0.029067993,-0.194412231,-1.132507324,36.9430542,17.4699707,-75.55508423
0,40:06.4,0:27,60,0,40:10.6,1540932011,0.073177275,-0.021199295,-0.283822132,0.013153076,-0.21522522,-1.071655273,36.9430542,17.4699707,-75.55508423
0,40:06.4,0:27,60,0,40:10.6,1540932011,-0.101298126,0.128972897,-0.362838654,0.010467529,-0.188674927,-1.154495239,36.55914307,17.62387085,-75.41413879
0,40:06.4,0:27,60,0,40:10.7,1540932011,-0.114576913,0.257188657,-0.477259506,0.018203735,-0.149078369,-1.261825562,36.84368896,18.03340149,-75.53952026
0,40:06.4,0:27,60,0,40:10.7,1540932011,0.054266168,0.242012634,-0.603680562,0.05305481,-0.11807251,-1.352874756,36.79411316,17.96495056,-75.77894592
0,40:06.4,0:27,60,0,40:10.7,1540932011,0.245761299,0.068558555,-0.693893014,0.116760254,-0.116073608,-1.38053894,36.84368896,18.03340149,-75.53952026
0,40:06.4,0:27,60,0,40:10.7,1540932011,0.292092845,-0.145181694,-0.639553875,0.177856445,-0.152053833,-1.343460083,36.92559814,17.55014038,-75.94335938
0,40:06.4,0:27,60,0,40:10.7,1540932011,0.131220871,-0.286936965,-0.507974009,0.16078186,-0.21484375,-1.259460449,36.39157104,17.88961792,-75.56945801
0,40:06.4,0:27,60,0,40:10.7,1540932011,-0.204336095,-0.054010238,-0.338409744,0.126861572,-0.217330933,-1.129486084,36.39157104,17.88961792,-75.56945801
0,40:06.4,0:27,60,0,40:10.8,1540932011,-0.450486748,0.249723018,-0.238385674,0.100128174,-0.153137207,-1.100631714,36.32974243,17.90184021,-75.57237244
0,40:06.4,0:27,60,0,40:10.8,1540932011,-0.42788663,0.415919716,-0.199635083,0.107315063,-0.060089111,-1.157348633,36.43269348,18.34841919,-75.2379303
0,40:06.4,0:27,60,0,40:10.8,1540932011,-0.220561404,0.4916728,-0.166394838,0.118164063,-0.002319336,-1.194030762,36.97241211,18.3187561,-75.52189636
0,40:06.4,0:27,60,0,40:10.8,1540932011,0.039600406,0.35288003,-0.163416092,0.119720459,0.030227661,-1.184020996,37.33169556,18.63548279,-75.80279541
0,40:06.4,0:27,60,0,40:10.8,1540932011,0.132171087,-0.00165622,-0.173513467,0.125274658,0.021896362,-1.092987061,37.35043335,18.55545044,-75.25834656
0,40:06.4,0:27,60,0,40:10.8,1540932011,0.032006136,-0.223454928,-0.18661329,0.09992981,-0.00567627,-0.923156738,37.35043335,18.55545044,-75.25834656
0,40:06.4,0:27,60,0,40:10.9,1540932011,-0.111639713,-0.252296963,-0.202677212,0.060287476,-0.034072876,-0.777893066,37.08694458,18.68458557,-75.50204468
0,40:06.4,0:27,60,0,40:10.9,1540932011,-0.227600405,-0.033711891,-0.21951345,0.013275146,-0.056991577,-0.695892334,36.88986206,18.80195618,-75.19618225
0,40:06.4,0:27,60,0,40:10.9,1540932011,-0.217300629,0.264807695,-0.242706653,-0.009124756,-0.055953979,-0.684936523,37.25695801,18.728302,-75.64729309
0,40:06.4,0:27,60,0,40:10.9,1540932011,-0.106435097,0.391352055,-0.237222938,0.01121521,-0.05619812,-0.723831177,37.60023499,18.81610107,-75.54728699
0,40:06.4,0:27,60,0,40:10.9,1540932011,-0.000272974,0.347227204,-0.276924811,0.007461548,-0.055953979,-0.75453186,37.84628296,18.76713562,-75.6918335
0,40:06.4,0:27,60,0,40:10.9,1540932011,0.065668759,0.178013144,-0.31462958,0.020568848,-0.067947388,-0.772262573,37.84628296,18.76713562,-75.6918335
0,40:06.4,0:27,60,0,40:11.0,1540932011,0.055468319,-0.005762548,-0.314853818,0.031845093,-0.094741821,-0.773910522,37.56399536,19.3674469,-75.37260437
0,40:06.4,0:27,60,0,40:11.0,1540932011,-0.022340193,-0.092626074,-0.314942235,0.010467529,-0.113189697,-0.760848999,37.65994263,19.50408936,-75.28424072
0,40:06.4,0:27,60,0,40:11.0,1540932011,-0.138789309,-0.028809278,-0.306268585,-0.007858276,-0.137817383,-0.76399231,37.49957275,19.37942505,-75.68791199
0,40:06.4,0:27,60,0,40:11.0,1540932011,-0.169066254,0.109970177,-0.316798724,-0.021148682,-0.142211914,-0.814575195,37.76304626,19.25027466,-75.44418335
0,40:06.4,0:27,60,0,40:11.0,1540932011,-0.123369073,0.152697401,-0.2921272,0.009475708,-0.145858765,-0.892166138,37.88412476,19.22558594,-75.75076294
0,40:06.4,0:27,60,0,40:11.0,1540932011,-0.147857905,0.150379386,-0.194675744,0.067199707,-0.173797607,-0.933563232,37.74165344,19.72119141,-75.19367981
0,40:06.4,0:27,60,0,40:11.1,1540932011,-0.232869203,0.212487232,-0.104626278,0.087005615,-0.190200806,-0.945709229,37.74165344,19.72119141,-75.19367981
0,40:06.4,0:27,60,0,40:11.1,1540932011,-0.381394496,0.26305853,0.04753423,0.116256714,-0.216323853,-0.990905762,38.08934021,20.11868286,-75.15995789
0,40:06.4,0:27,60,0,40:11.1,1540932011,-0.483222058,0.238494864,0.213512016,0.136886597,-0.219345093,-1.073104858,38.41714478,20.28683472,-75.21389771
0,40:06.4,0:27,60,0,40:11.1,1540932011,-0.479674993,0.187299587,0.294833504,0.118270874,-0.178146362,-1.183547974,38.87052917,20.4307251,-75.02778625
0,40:06.4,0:27,60,0,40:11.1,1540932011,-0.380649077,0.07163424,0.310729913,0.107223511,-0.123565674,-1.27545166,39.33421326,20.49377441,-75.31242371
0,40:06.4,0:27,60,0,40:11.1,1540932011,-0.299332116,-0.015837819,0.351295183,0.112030029,-0.102157593,-1.340362549,39.23875427,21.05760193,-74.82829285
0,40:06.4,0:27,60,0,40:11.2,1540932011,-0.139536592,-0.072418008,0.322273651,0.115371704,-0.029006958,-1.408859253,39.23875427,21.05760193,-74.82829285
0,40:06.4,0:27,60,0,40:11.2,1540932011,0.124134998,-0.221255157,0.123917152,0.112991333,0.046615601,-1.457351685,39.13499451,21.31137085,-74.74641418
0,40:06.4,0:27,60,0,40:11.2,1540932011,0.295499561,-0.316267424,-0.059358665,0.137634277,0.048019409,-1.395217896,38.93023682,21.11872864,-74.76473999
0,40:06.4,0:27,60,0,40:11.2,1540932011,0.290700545,-0.379980623,-0.073357305,0.179382324,-0.030349731,-1.293121338,39.06698608,20.31329346,-75.41175842
0,40:06.4,0:27,60,0,40:11.2,1540932011,0.191245326,-0.394528407,0.016601081,0.215438843,-0.089645386,-1.193222046,39.09538269,20.15231323,-75.41619873
0,40:06.4,0:27,60,0,40:11.2,1540932011,0.077565366,-0.33888352,0.168759458,0.253341675,-0.105895996,-1.112487793,38.88017273,20.34980774,-75.57667542
0,40:06.4,0:27,60,0,40:11.3,1540932011,-0.065656242,-0.274486421,0.366982799,0.276382446,-0.116378784,-1.070739746,38.88017273,20.34980774,-75.57667542
0,40:06.4,0:27,60,0,40:11.3,1540932011,-0.133897082,-0.216968799,0.482723248,0.238250732,-0.099960327,-1.047058105,38.51615906,20.73300171,-75.34802246
0,40:06.4,0:27,60,0,40:11.3,1540932011,-0.090299803,-0.178457892,0.48490198,0.181411743,-0.047027588,-1.015930176,38.76350403,20.68415833,-75.33639526
0,40:06.4,0:27,60,0,40:11.3,1540932011,0.018616029,-0.053736732,0.410069284,0.118606567,-0.013504028,-0.964157104,39.19309998,20.59837341,-75.70651245
0,40:06.4,0:27,60,0,40:11.3,1540932011,0.131400901,0.030992005,0.319123398,0.074569702,-0.026626587,-0.912445068,39.37290955,20.25192261,-75.78770447
0,40:06.4,0:27,60,0,40:11.3,1540932011,0.113344669,0.127424269,0.320317559,0.074066162,-0.071563721,-0.832199097,39.72727966,19.94966125,-75.46743774
0,40:06.4,0:27,60,0,40:11.4,1540932011,-0.046377885,0.314647156,0.40732676,0.074737549,-0.11932373,-0.773040771,39.77278137,20.71812439,-75.2021637
0,40:06.4,0:27,60,0,40:11.4,1540932011,-0.193543368,0.483507815,0.457900988,0.060073853,-0.113891602,-0.78024292,39.77278137,20.71812439,-75.2021637
0,40:06.4,0:27,60,0,40:11.4,1540932011,-0.23177198,0.566064211,0.461224613,0.058013916,-0.072525024,-0.832183838,40.53276062,20.80073547,-75.31387329
0,40:06.4,0:27,60,0,40:11.4,1540932011,-0.161742828,0.493074156,0.423637557,0.065246582,-0.049728394,-0.894378662,40.86444092,20.9692688,-74.89926147
0,40:06.4,0:27,60,0,40:11.4,1540932011,0.014385864,0.255965467,0.330137699,0.068969727,-0.03742981,-0.943405151,41.71549988,20.17834473,-75.42881775
0,40:06.4,0:27,60,0,40:11.4,1540932011,0.218044716,-0.078756598,0.237581666,0.07699585,-0.055755615,-0.962661743,41.6104126,20.43197632,-75.50314331
0,40:06.4,0:27,60,0,40:11.5,1540932011,0.29605696,-0.308656642,0.199799133,0.085723877,-0.095001221,-0.906173706,41.33221436,20.33229065,-75.20974731
0,40:06.4,0:27,60,0,40:11.5,1540932011,0.237532664,-0.370708295,0.169752551,0.061050415,-0.139297485,-0.82723999,41.33221436,20.33229065,-75.20974731
0,40:06.4,0:27,60,0,40:11.5,1540932011,0.09840327,-0.2579157,0.157074839,0.044494629,-0.168365479,-0.791549683,41.25553894,20.42494202,-75.2885437
0,40:06.4,0:27,60,0,40:11.5,1540932012,0.006301838,-0.078527566,0.147680538,0.04385376,-0.171691895,-0.833908081,41.23091125,20.89556885,-75.4284668
0,40:06.4,0:27,60,0,40:11.5,1540932012,0.154391971,-0.063142218,0.002026666,0.043273926,-0.137191772,-1.029876709,41.43780518,20.38798523,-75.67030334
0,40:06.4,0:27,60,0,40:11.5,1540932012,0.154391971,-0.063142218,0.002026666,0.043273926,-0.137191772,-1.029876709,41.70782471,19.86833191,-75.75302124
0,40:06.4,0:27,60,0,40:11.6,1540932012,0.263822591,-0.119866484,-0.140494264,0.041061401,-0.125717163,-1.089172363,41.5100708,19.98564148,-75.52522278
0,40:06.4,0:27,60,0,40:11.6,1540932012,0.406319819,-0.149649413,-0.337603871,0.077453613,-0.156066895,-1.125869751,41.30841064,20.10258484,-75.76602173
0,40:06.4,0:27,60,0,40:11.6,1540932012,0.406319819,-0.149649413,-0.337603871,0.077453613,-0.156066895,-1.125869751,41.30841064,20.10258484,-75.76602173
0,40:06.4,0:27,60,0,40:11.6,1540932012,0.385026515,0.047429301,-0.34270995,0.091430664,-0.181365967,-1.111160278,41.33810425,19.94171143,-75.61427307
0,40:06.4,0:27,60,0,40:11.6,1540932012,0.34865306,0.689594672,-0.176996349,0.12008667,-0.183166504,-1.193359375,41.80900574,19.61433411,-76.14726257
0,40:06.4,0:27,60,0,40:11.6,1540932012,0.34865306,0.689594672,-0.176996349,0.12008667,-0.183166504,-1.193359375,42.28573608,19.2875061,-75.97738647
0,40:06.4,0:27,60,0,40:11.7,1540932012,0.355304305,0.048419198,-0.248465739,0.152511597,-0.132476807,-1.290618896,42.2774353,18.97741699,-76.37968445
0,40:06.4,0:27,60,0,40:11.7,1540932012,0.17496702,-0.413513284,-0.335731935,0.12651062,-0.138122559,-1.243606567,41.8992157,19.44113159,-76.14881897
0,40:06.4,0:27,60,0,40:11.7,1540932012,0.17496702,-0.413513284,-0.335731935,0.12651062,-0.138122559,-1.243606567,41.8992157,19.44113159,-76.14881897
0,40:06.4,0:27,60,0,40:11.7,1540932012,-0.14382721,-0.123775472,-0.348148125,0.052947998,-0.100418091,-1.116256714,41.63768005,19.57048035,-76.15821838
0,40:06.4,0:27,60,0,40:11.7,1540932012,-0.009694972,-0.007957792,-0.420856151,0.046188354,-0.032012939,-1.14302063,41.18869019,19.73625183,-76.41064453
0,40:06.4,0:27,60,0,40:11.7,1540932012,-0.009694972,-0.007957792,-0.420856151,0.046188354,-0.032012939,-1.14302063,41.64862061,19.48965454,-76.55093384
0,40:06.4,0:27,60,0,40:11.8,1540932012,0.064907894,0.312247116,-0.341235358,0.063491821,-0.069595337,-1.029937744,41.93725586,19.19920349,-76.70214844
0,40:06.4,0:27,60,0,40:11.8,1540932012,-0.04377358,0.319518611,-0.275877656,0.060028076,-0.070709229,-1.007125854,41.73295593,19.70704651,-76.14796448
0,40:06.4,0:27,60,0,40:11.8,1540932012,-0.11220164,0.221740385,-0.273840072,0.043334961,-0.054718018,-1.003387451,41.73295593,19.70704651,-76.14796448
0,40:06.4,0:27,60,0,40:11.8,1540932012,-0.124760575,0.111712417,-0.317878104,0.037521362,-0.02633667,-0.969223022,41.64779663,20.18998718,-76.13461304
0,40:06.4,0:27,60,0,40:11.8,1540932012,-0.038386005,-0.031469243,-0.42301997,0.027099609,-0.010910034,-0.928039551,41.63735962,20.58009338,-76.27676392
0,40:06.4,0:27,60,0,40:11.8,1540932012,0.050391269,-0.136941874,-0.497060908,0.034988403,-0.029037476,-0.853393555,41.61045837,20.04083252,-76.61053467
0,40:06.4,0:27,60,0,40:11.9,1540932012,0.027781298,-0.061264956,-0.433781271,0.076782227,-0.081878662,-0.768249512,41.45709229,20.22608948,-76.76809692
0,40:06.4,0:27,60,0,40:11.9,1540932012,0.027781298,-0.061264956,-0.433781271,0.076782227,-0.081878662,-0.768249512,41.18200684,20.43598938,-76.69718933
0,40:06.4,0:27,60,0,40:11.9,1540932012,0.034712973,0.059875052,-0.179839274,0.044128418,-0.109161377,-0.775894165,41.18200684,20.43598938,-76.69718933
0,40:06.4,0:27,60,0,40:11.9,1540932012,0.159765963,-0.111911089,-0.257183331,0.005767822,-0.070251465,-0.789703369,41.03189087,20.62159729,-76.46429443
0,40:06.4,0:27,60,0,40:11.9,1540932012,0.218797858,-0.237695916,-0.319462684,-0.004455566,-0.080917358,-0.762420654,40.70133972,21.15357971,-76.22828674
0,40:06.4,0:27,60,0,40:11.9,1540932012,0.146525792,-0.187248188,-0.319383056,-0.003158569,-0.1275177,-0.722305298,40.68536377,20.53349304,-76.95475769
0,40:06.4,0:27,60,0,40:12.0,1540932012,-0.029430593,-0.047391751,-0.249562163,0.000778198,-0.183898926,-0.733520508,40.71180725,20.37229919,-77.1934967
0,40:06.4,0:27,60,0,40:12.0,1540932012,-0.124474818,0.073129338,-0.13695013,0.02116394,-0.211120605,-0.817749023,40.58944702,20.39686584,-77.04312134
0,40:06.4,0:27,60,0,40:12.0,1540932012,-0.062445801,0.081784345,-0.015947009,0.055709839,-0.205505371,-0.913848877,40.18348694,21.0216217,-76.72969055
0,40:06.4,0:27,60,0,40:12.0,1540932012,0.04129684,0.035001127,0.073922694,0.066314697,-0.188293457,-0.979797363,40.18348694,21.0216217,-76.72969055
0,40:06.4,0:27,60,0,40:12.0,1540932012,0.066082614,-0.015063638,0.09205962,0.066665649,-0.149337769,-1.024139404,40.34127808,21.14604187,-76.63842773
0,40:06.4,0:27,60,0,40:12.0,1540932012,-0.001980327,-0.08880577,0.033087646,0.048843384,-0.12701416,-1.056274414,40.45207214,20.81108093,-77.58158875
0,40:06.4,0:27,60,0,40:12.1,1540932012,-0.157561132,-0.168098994,-0.050499926,0.041534424,-0.12097168,-1.074859619,40.39349365,20.8236084,-77.19400024
0,40:06.4,0:27,60,0,40:12.1,1540932012,-0.390570151,-0.296373078,-0.141625309,0.044052124,-0.123779297,-1.097076416,40.06881714,20.96504211,-77.36253357
0,40:06.4,0:27,60,0,40:12.1,1540932012,-0.661726289,-0.3068654,-0.112659704,0.095535278,-0.143157959,-1.121566772,39.55909729,21.84353638,-76.96725464
0,40:06.4,0:27,60,0,40:12.1,1540932012,-0.758802505,-0.173431175,0.021385983,0.134307861,-0.115753174,-1.201171875,39.55909729,21.84353638,-76.96725464
0,40:06.4,0:27,60,0,40:12.1,1540932012,-0.552499133,-0.196231829,0.08877248,0.122543335,-0.071289063,-1.341186523,39.29232788,22.36352539,-76.49406433
0,40:06.4,0:27,60,0,40:12.1,1540932012,-0.203035939,-0.386413223,0.015635152,0.098419189,-0.048950195,-1.406707764,38.95851135,22.89518738,-76.64851379
0,40:06.4,0:27,60,0,40:12.2,1540932012,0.05757488,-0.488264221,-0.024175111,0.119354248,-0.042053223,-1.343597412,39.10160828,22.39964294,-77.12754822
0,40:06.4,0:27,60,0,40:12.2,1540932012,0.132735411,-0.443797952,0.035829903,0.139297485,-0.057159424,-1.235351563,38.6353302,22.33633423,-77.15527344
0,40:06.4,0:27,60,0,40:12.2,1540932012,0.052981459,-0.369009731,0.188003727,0.159423828,-0.096801758,-1.167724609,38.11924744,22.90493774,-76.92799377
0,40:06.4,0:27,60,0,40:12.2,1540932012,-0.105030546,-0.296019144,0.436571731,0.19708252,-0.107177734,-1.156661987,38.11924744,22.90493774,-76.92799377
0,40:06.4,0:27,60,0,40:12.2,1540932012,-0.203394135,-0.409132384,0.558534123,0.177703857,-0.051498413,-1.186019897,37.85266113,22.72453308,-76.94921875
0,40:06.4,0:27,60,0,40:12.2,1540932012,-0.157806942,-0.621248371,0.479017725,0.119812012,0.022964478,-1.182250977,37.53431702,23.17584229,-76.94972229
0,40:06.4,0:27,60,0,40:12.3,1540932012,-0.001110538,-0.697882429,0.333248271,0.08732605,0.062637329,-1.116226196,37.33610535,22.59269714,-77.29444885
0,40:06.4,0:27,60,0,40:12.3,1540932012,0.159197378,-0.612408274,0.212307735,0.073516846,0.050415039,-1.007324219,36.93164063,22.51719666,-77.31925964
0,40:06.4,0:27,60,0,40:12.3,1540932012,0.182530132,-0.379000314,0.211519173,0.06892395,-0.014068604,-0.901489258,36.75527954,22.16357422,-77.34202576
0,40:06.4,0:27,60,0,40:12.3,1540932012,0.045674278,0.236982189,0.403996211,0.049301147,-0.078155518,-0.824661255,36.63861084,22.49795532,-77.10174561
0,40:06.4,0:27,60,0,40:12.3,1540932012,0.045674278,0.236982189,0.403996211,0.049301147,-0.078155518,-0.824661255,36.63861084,22.49795532,-77.10174561
0,40:06.4,0:27,60,0,40:12.3,1540932012,0.046450323,0.414585738,0.347459432,0.035079956,-0.023605347,-0.83757019,36.96640015,22.66609192,-77.15571594
0,40:06.4,0:27,60,0,40:12.4,1540932012,0.183640936,0.153530704,0.114727382,0.06918335,-0.007629395,-0.863174438,37.13919067,22.00968933,-77.48300171
0,40:06.4,0:27,60,0,40:12.4,1540932012,0.183640936,0.153530704,0.114727382,0.06918335,-0.007629395,-0.863174438,37.70794678,21.8190918,-77.69332886
0,40:06.4,0:27,60,0,40:12.4,1540932012,0.167616962,0.014293985,0.08029191,0.090087891,-0.04258728,-0.80128479,37.57858276,21.53372192,-77.7890625
0,40:06.4,0:27,60,0,40:12.4,1540932012,0.019010709,-0.089178612,0.075916603,0.063644409,-0.098419189,-0.720123291,37.07145691,22.41247559,-77.08139038
0,40:06.4,0:27,60,0,40:12.4,1540932012,0.019010709,-0.089178612,0.075916603,0.063644409,-0.098419189,-0.720123291,37.07145691,22.41247559,-77.08139038
0,40:06.4,0:27,60,0,40:12.4,1540932012,0.009941048,-0.07239617,-0.041855305,-0.002670288,-0.093307495,-0.739974976,37.05024719,22.18299866,-77.32525635
0,40:06.4,0:27,60,0,40:12.5,1540932012,-0.032643164,-0.043197272,-0.208863468,-0.002670288,-0.093307495,-0.739974976,36.9246521,22.20724487,-77.56538391
0,40:06.4,0:27,60,0,40:12.5,1540932012,-0.032643164,-0.043197272,-0.208863468,-0.042877197,-0.076187134,-0.73236084,37.05615234,21.79244995,-77.7297821
0,40:06.4,0:27,60,0,40:12.5,1540932012,-0.498322447,-0.294891029,-0.523895185,-0.002487183,-0.114425659,-0.754455566,36.45329285,21.834198,-77.60488892
0,40:06.4,0:27,60,0,40:12.5,1540932013,-0.498322447,-0.294891029,-0.523895185,-0.002487183,-0.114425659,-0.754455566,35.95188904,23.02278137,-76.80732727
0,40:06.4,0:27,60,0,40:12.5,1540932013,-0.633792925,-0.253292719,-0.593417272,0.015991211,-0.153610229,-0.808395386,35.95188904,23.02278137,-76.80732727
0,40:06.4,0:27,60,0,40:12.5,1540932013,-0.363777152,0.200443352,-0.565080173,0.095230103,-0.189285278,-1.021865845,35.33859253,23.45463562,-76.82461548
0,40:06.4,0:27,60,0,40:12.6,1540932013,-0.363777152,0.200443352,-0.565080173,0.095230103,-0.189285278,-1.021865845,35.29989624,23.69650269,-76.34938049
0,40:06.4,0:27,60,0,40:12.6,1540932013,0.103159942,0.662488485,-0.38257614,0.075363159,-0.199630737,-1.26260376,35.68464661,22.84228516,-76.90664673
0,40:06.4,0:27,60,0,40:12.6,1540932013,0.246090998,0.725961734,-0.369681913,0.097427368,-0.181640625,-1.360656738,36.16773987,22.8253479,-76.56877136
0,40:06.4,0:27,60,0,40:12.6,1540932013,0.246090998,0.725961734,-0.369681913,0.097427368,-0.181640625,-1.360656738,36.44787598,22.92521667,-76.62786865
0,40:06.4,0:27,60,0,40:12.6,1540932013,0.2996738,0.599912189,-0.352716512,0.119720459,-0.178237915,-1.51751709,36.29335022,22.80111694,-76.32865906
0,40:06.4,0:27,60,0,40:12.6,1540932013,0.370192707,0.259567126,-0.342444699,0.140823364,-0.1587677,-1.56690979,36.29335022,22.80111694,-76.32865906
0,40:06.4,0:27,60,0,40:12.7,1540932013,0.370192707,0.259567126,-0.342444699,0.140823364,-0.1587677,-1.56690979,36.34034729,22.86933899,-76.40162659
0,40:06.4,0:27,60,0,40:12.7,1540932013,0.25912078,0.047853809,-0.146711414,0.103286743,-0.174789429,-1.405838013,36.33547974,21.85919189,-76.90783691
0,40:06.4,0:27,60,0,40:12.7,1540932013,0.1759452,0.200636431,-0.015857793,0.099395752,-0.12701416,-1.331268311,36.70907593,21.78617859,-76.57800293
0,40:06.4,0:27,60,0,40:12.7,1540932013,0.274989758,0.191067161,-0.024460336,0.058197021,-0.030792236,-1.311386108,36.59846497,21.42073059,-76.12927246
0,40:06.4,0:27,60,0,40:12.7,1540932013,0.41004638,0.073256904,-0.099598496,0.03666687,0.030044556,-1.243499756,36.1558075,21.89639282,-76.21369934
0,40:06.4,0:27,60,0,40:12.7,1540932013,0.462595875,0.04375041,-0.149978047,0.041107178,0.038497925,-1.120315552,36.1558075,21.89639282,-76.21369934
0,40:06.4,0:27,60,0,40:12.8,1540932013,0.44651411,0.130356409,-0.130591832,0.041549683,0.017791748,-1.015869141,35.93312073,21.47463989,-76.08540344
0,40:06.4,0:27,60,0,40:12.8,1540932013,0.387844672,0.182614021,-0.074828435,0.046340942,-0.00958252,-0.942764282,36.29077148,20.78153992,-76.48205566
0,40:06.4,0:27,60,0,40:12.8,1540932013,0.333699145,0.150574063,-0.047012516,0.052383423,-0.014923096,-0.877929688,36.51509094,20.19378662,-76.33561707
0,40:06.4,0:27,60,0,40:12.8,1540932013,0.278757332,0.143453036,-0.027732562,0.046432495,-0.020462036,-0.810760498,36.62786865,19.85902405,-77.04444885
0,40:06.4,0:27,60,0,40:12.8,1540932013,0.180219307,0.212390293,0.009856359,0.036682129,-0.039047241,-0.755203247,36.69017029,20.54728699,-76.46903992
0,40:06.4,0:27,60,0,40:12.8,1540932013,0.048935851,0.280470278,0.069940203,0.044952393,-0.063018799,-0.727310181,36.69017029,20.54728699,-76.46903992
0,40:06.4,0:27,60,0,40:12.9,1540932013,-0.066439211,0.254194731,0.155604508,0.059341431,-0.084503174,-0.732376099,36.60844421,20.33015442,-76.55964661
0,40:06.4,0:27,60,0,40:12.9,1540932013,-0.139638058,0.22432951,0.226262166,0.047439575,-0.084823608,-0.745895386,36.86083984,20.59106445,-76.53617859
0,40:06.4,0:27,60,0,40:12.9,1540932013,-0.141908936,0.205989651,0.21981492,0.019927979,-0.064071655,-0.761627197,37.54315186,19.75654602,-76.76434326
0,40:06.4,0:27,60,0,40:12.9,1540932013,-0.074045998,0.123350165,0.166153555,0.00994873,-0.05116272,-0.780502319,37.7177124,19.80072021,-76.36289978
0,40:06.4,0:27,60,0,40:12.9,1540932013,0.04534378,-0.078846612,0.133749543,0.02482605,-0.079528809,-0.811645508,37.4006958,20.25215149,-76.2071991
0,40:06.4,0:27,60,0,40:12.9,1540932013,0.149476574,-0.326431644,0.128064759,0.017364502,-0.134353638,-0.823822021,36.66192627,20.39900208,-75.85162354
0,40:06.4,0:27,60,0,40:13.0,1540932013,0.153890231,-0.410925224,0.149376706,-0.007675171,-0.180725098,-0.780303955,36.66192627,20.39900208,-75.85162354
0,40:06.4,0:27,60,0,40:13.0,1540932013,0.005675196,-0.248424194,0.169959212,-0.023483276,-0.201675415,-0.718658447,36.40608215,20.83816528,-75.77113342
0,40:06.4,0:27,60,0,40:13.0,1540932013,-0.216141888,-0.064657557,0.188443947,-0.016555786,-0.201599121,-0.73614502,36.881073,19.8107605,-76.32997131
0,40:06.4,0:27,60,0,40:13.0,1540932013,-0.29724979,-0.057363691,0.182047301,-0.006759644,-0.188232422,-0.855911255,37.08842468,20.00364685,-75.99926758
0,40:06.4,0:27,60,0,40:13.0,1540932013,-0.188224769,-0.037448306,0.079242891,-0.018081665,-0.133071899,-0.95526123,37.32156372,20.03530884,-75.9854126
0,40:06.4,0:27,60,0,40:13.0,1540932013,-0.01063853,-0.027706995,-0.078204524,-0.011749268,-0.110824585,-1.018371582,36.58065796,20.88232422,-75.36968994
0,40:06.4,0:27,60,0,40:13.1,1540932013,0.121638818,0.010158362,-0.127449302,0.041625977,-0.150817871,-1.066192627,36.58065796,20.88232422,-75.36968994
0,40:06.4,0:27,60,0,40:13.1,1540932013,0.174408822,0.041637458,-0.011770107,0.099304199,-0.22253418,-1.124450684,36.790802,20.37510681,-75.22105408
0,40:06.4,0:27,60,0,40:13.1,1540932013,0.028742965,0.099079979,0.308523484,0.100097656,-0.23866272,-1.187683105,36.83207703,20.13349915,-75.38389587
0,40:06.4,0:27,60,0,40:13.1,1540932013,0.028742965,0.099079979,0.308523484,0.100097656,-0.23866272,-1.187683105,37.63464355,19.97463989,-75.50227356
0,40:06.4,0:27,60,0,40:13.1,1540932013,-0.096692189,0.098214984,0.284993657,0.072540283,-0.181564331,-1.229827881,37.87693787,19.61602783,-75.50244141
0,40:06.4,0:27,60,0,40:13.1,1540932013,-0.156718774,0.078720379,0.165047544,0.069885254,-0.120849609,-1.262908936,37.47540283,20.55049133,-75.25532532
0,40:06.4,0:27,60,0,40:13.2,1540932013,-0.08944626,-0.085760179,0.022403843,0.080108643,-0.102996826,-1.320053101,36.9407196,20.88989258,-74.95953369
0,40:06.4,0:27,60,0,40:13.2,1540932013,-0.062716645,-0.270903404,0.005035239,0.124099731,-0.129974365,-1.297409058,36.9407196,20.88989258,-74.95953369
0,40:06.4,0:27,60,0,40:13.2,1540932013,-0.203173092,-0.251891896,0.186068141,0.171188354,-0.179412842,-1.241409302,37.14172363,20.77288818,-74.79684448
0,40:06.4,0:27,60,0,40:13.2,1540932013,-0.454302791,-0.087426519,0.503306553,0.194473267,-0.186096191,-1.207061768,37.81686401,20.32884216,-74.7766571
0,40:06.4,0:27,60,0,40:13.2,1540932013,-0.530019923,-0.052332447,0.564407192,0.105758667,0.021270752,-1.303588867,37.88050842,20.6260376,-75.15242004
0,40:06.4,0:27,60,0,40:13.2,1540932013,-0.530019923,-0.052332447,0.564407192,0.105758667,0.021270752,-1.303588867,38.05995178,21.68037415,-74.24476624
0,40:06.4,0:27,60,0,40:13.3,1540932013,-0.252609352,-0.322188962,0.30271726,0.074645996,0.121276855,-1.280639648,37.30630493,21.90765381,-73.96504211
0,40:06.4,0:27,60,0,40:13.3,1540932013,0.078508657,-0.394369416,-0.022993467,0.071228027,0.03062439,-0.998046875,37.30630493,21.90765381,-73.96504211
0,40:06.4,0:27,60,0,40:13.3,1540932013,0.078508657,-0.394369416,-0.022993467,0.071228027,0.03062439,-0.998046875,37.24822998,22.22949219,-74.11233521
0,40:06.4,0:27,60,0,40:13.3,1540932013,0.004221643,-0.220663136,-0.006698383,0.09538269,-0.056137085,-0.884140015,37.30584717,21.2071991,-74.53756714
0,40:06.4,0:27,60,0,40:13.3,1540932013,-0.067276775,0.023329557,0.007541007,0.079986572,-0.087692261,-0.802703857,37.71536255,21.59246826,-74.50093079
0,40:06.4,0:27,60,0,40:13.3,1540932013,-0.067276775,0.023329557,0.007541007,0.079986572,-0.087692261,-0.802703857,37.76625061,21.66107178,-74.10533142
0,40:06.4,0:27,60,0,40:13.4,1540932013,0.13936828,0.203694805,-0.151844657,0.072784424,-0.064956665,-0.780502319,37.42590332,22.58325195,-73.93339539
0,40:06.4,0:27,60,0,40:13.4,1540932013,0.218151775,0.164146331,-0.188321708,0.095092773,-0.093765259,-0.769439697,37.42590332,22.58325195,-73.93339539
0,40:06.4,0:27,60,0,40:13.4,1540932013,0.218151775,0.164146331,-0.188321708,0.095092773,-0.093765259,-0.769439697,37.71775818,22.29312134,-73.69412231
0,40:06.4,0:27,60,0,40:13.4,1540932013,0.506711138,-0.114061059,-0.28189933,0.072357178,-0.13621521,-0.744430542,37.68518066,21.44400024,-74.11781311
0,40:06.4,0:27,60,0,40:13.4,1540932013,0.7493608,-0.129941222,-0.409409885,0.019134521,-0.141540527,-0.711029053,38.08456421,21.20976257,-74.10481262
0,40:06.4,0:27,60,0,40:13.4,1540932013,0.7493608,-0.129941222,-0.409409885,0.019134521,-0.141540527,-0.711029053,37.99142456,20.37301636,-74.37521362
0,40:06.4,0:27,60,0,40:13.5,1540932013,0.947107169,0.125977906,-0.507661088,0.045394897,-0.220169067,-0.654510498,37.63771057,20.67532349,-74.61737061
0,40:06.4,0:27,60,0,40:13.5,1540932013,0.644231717,0.35433305,-0.355244118,0.079406738,-0.286239624,-0.653320313,37.63771057,20.67532349,-74.61737061
0,40:06.4,0:27,60,0,40:13.5,1540932013,0.173373385,0.552861057,-0.184618849,0.107254028,-0.330078125,-0.71206665,37.62695313,20.05577087,-74.71908569
0,40:06.4,0:27,60,0,40:13.5,1540932014,-0.191911383,0.417552766,-0.092603704,0.148483276,-0.329101563,-0.857574463,37.9566803,20.22409058,-74.53875732
0,40:06.4,0:27,60,0,40:13.5,1540932014,-0.379487938,0.223346271,-0.033900709,0.167282104,-0.303222656,-0.989883423,38.93840027,19.71871948,-74.81642151
0,40:06.4,0:27,60,0,40:13.5,1540932014,-0.421963227,0.091639107,0.005568936,0.168380737,-0.274185181,-1.100387573,38.96025085,19.94822693,-74.4944458
0,40:06.4,0:27,60,0,40:13.6,1540932014,-0.324498988,-0.084448572,-0.011805527,0.156799316,-0.243118286,-1.202301025,38.68807983,21.16807556,-74.15159607
0,40:06.4,0:27,60,0,40:13.6,1540932014,-0.172211714,-0.145437358,-0.002279666,0.154281616,-0.226272583,-1.27003479,38.50646973,21.20509338,-73.69174194
0,40:06.4,0:27,60,0,40:13.6,1540932014,-0.034689005,-0.098102066,0.002029062,0.136322021,-0.219482422,-1.306503296,38.50646973,21.20509338,-73.69174194
0,40:06.4,0:27,60,0,40:13.6,1540932014,0.026234001,-0.019609388,-0.02787291,0.112335205,-0.215866089,-1.31451416,38.54498291,21.66362,-73.67256165
0,40:06.4,0:27,60,0,40:13.6,1540932014,0.037315148,0.02695625,-0.068510884,0.092651367,-0.207458496,-1.351211548,39.02125549,20.63633728,-74.07521057
0,40:06.4,0:27,60,0,40:13.6,1540932014,0.078046865,-0.147162553,-0.171538201,0.094085693,-0.166976929,-1.41468811,39.24591064,21.05831909,-73.96922302
0,40:06.4,0:27,60,0,40:13.7,1540932014,0.136152513,-0.500781078,-0.328334207,0.116104126,-0.107955933,-1.421325684,38.81436157,21.1439209,-73.83338928
0,40:06.4,0:27,60,0,40:13.7,1540932014,0.098548678,-0.700222282,-0.402460632,0.123886108,-0.107406616,-1.325149536,37.75596619,21.74194336,-73.63452148
0,40:06.4,0:27,60,0,40:13.7,1540932014,-0.031637022,-0.524949265,-0.373299817,0.07749939,-0.159469604,-1.216995239,37.75596619,21.74194336,-73.63452148
0,40:06.4,0:27,60,0,40:13.7,1540932014,-0.212934643,-0.048905225,-0.242023819,0.07119751,-0.181015015,-1.13243103,37.61026001,22.23722839,-73.46789551
0,40:06.4,0:27,60,0,40:13.7,1540932014,-0.258008644,0.32865352,-0.152665709,0.077163696,-0.152511597,-1.152633667,37.97245789,21.54458618,-73.31785583
0,40:06.4,0:27,60,0,40:13.7,1540932014,-0.13528379,0.267875656,-0.124927821,0.105895996,-0.09538269,-1.21131897,38.7794342,21.69541931,-73.50253296
0,40:06.4,0:27,60,0,40:13.8,1540932014,-0.015345134,0.124059098,-0.151905643,0.103652954,-0.046218872,-1.157974243,38.50239563,21.90510559,-73.66589355
0,40:06.4,0:27,60,0,40:13.8,1540932014,-0.011217235,0.113229087,-0.158345167,0.083068848,-0.029724121,-1.034500122,38.34884644,22.79077148,-73.32904053
0,40:06.4,0:27,60,0,40:13.8,1540932014,-0.054539675,0.10603509,-0.148705855,0.063354492,-0.038909912,-0.948928833,38.34884644,22.79077148,-73.32904053
0,40:06.4,0:27,60,0,40:13.8,1540932014,-0.105713114,0.04917527,-0.142338503,0.054412842,-0.053283691,-0.896957397,38.15109253,22.90808105,-73.10125732
0,40:06.4,0:27,60,0,40:13.8,1540932014,-0.138751758,0.014842329,-0.132735145,0.051437378,-0.054504395,-0.847549438,38.31800842,22.64225769,-73.02401733
0,40:06.4,0:27,60,0,40:13.8,1540932014,-0.104082194,-0.003783553,-0.156325425,0.031387329,-0.051803589,-0.796936035,38.94795227,22.43940735,-73.30952454
0,40:06.4,0:27,60,0,40:13.9,1540932014,-0.034984083,0.047590422,-0.186262818,0.024078369,-0.05909729,-0.749679565,38.977005,22.2784729,-73.23588562
0,40:06.4,0:27,60,0,40:13.9,1540932014,0.028855883,0.107543505,-0.185133372,0.029922485,-0.076309204,-0.723190308,38.54641724,23.37385559,-73.06240845
0,40:06.4,0:27,60,0,40:13.9,1540932014,0.060341638,0.099541505,-0.15302497,0.03956604,-0.100296021,-0.713912964,38.11680603,23.45965576,-72.69229126
0,40:06.4,0:27,60,0,40:13.9,1540932014,0.058215902,-0.001216266,-0.106030829,0.044647217,-0.11378479,-0.712219238,38.11680603,23.45965576,-72.69229126
0,40:06.4,0:27,60,0,40:13.9,1540932014,0.043275835,-0.126590966,-0.093331546,0.03012085,-0.112106323,-0.702865601,38.50138855,23.30584717,-72.75515747
0,40:06.4,0:27,60,0,40:13.9,1540932014,0.019543608,-0.077600786,-0.115753498,-0.002151489,-0.109039307,-0.692382813,38.78559875,22.70567322,-72.84010315
0,40:06.4,0:27,60,0,40:14.0,1540932014,-0.034079141,0.046251651,-0.124154706,-0.010513306,-0.124801636,-0.703231812,39.11335754,22.87382507,-72.89405823
0,40:06.4,0:27,60,0,40:14.0,1540932014,-0.099032308,0.094393082,-0.105875034,0.003936768,-0.157623291,-0.754470825,38.91366577,22.99095154,-72.90057373
0,40:06.4,0:27,60,0,40:14.0,1540932014,-0.128508442,0.110703079,-0.056588178,0.02255249,-0.179214478,-0.819061279,38.46139526,23.54756165,-72.43609619
0,40:06.4,0:27,60,0,40:14.0,1540932014,-0.031203992,0.281222354,0.074243871,0.070449829,-0.175308228,-0.963928223,38.46139526,23.54756165,-72.43609619
0,40:06.4,0:27,60,0,40:14.0,1540932014,-0.031203992,0.281222354,0.074243871,0.070449829,-0.175308228,-0.963928223,38.9082489,24.08198547,-71.92352295
0,40:06.4,0:27,60,0,40:14.0,1540932014,-0.023396403,0.242819838,0.191989414,0.104400635,-0.205429077,-1.035873413,39.52807617,23.25961304,-72.23268127
0,40:06.4,0:27,60,0,40:14.1,1540932014,-0.219120367,-0.003705522,0.370566349,0.066574097,-0.205841064,-1.162109375,40.08265686,23.14952087,-72.44078064
0,40:06.4,0:27,60,0,40:14.1,1540932014,-0.219120367,-0.003705522,0.370566349,0.066574097,-0.205841064,-1.162109375,39.94543457,23.25450134,-72.36627197
0,40:06.4,0:27,60,0,40:14.1,1540932014,-0.193074119,-0.040657415,0.352309847,0.041488647,-0.156265259,-1.220321655,39.73200989,24.15257263,-71.79804993
0,40:06.4,0:27,60,0,40:14.1,1540932014,0.174427198,0.094822383,0.212105601,0.029586792,-0.085479736,-1.367172241,39.73200989,24.15257263,-71.79804993
0,40:06.4,0:27,60,0,40:14.1,1540932014,0.174427198,0.094822383,0.212105601,0.029586792,-0.085479736,-1.367172241,39.90136719,24.19624329,-72.0213623
0,40:06.4,0:27,60,0,40:14.1,1540932014,0.481548527,0.127503365,0.228134901,0.077346802,-0.14541626,-1.347900391,40.50521851,23.14491272,-71.94960022
0,40:06.4,0:27,60,0,40:14.2,1540932014,0.330060468,0.060704627,0.255931379,0.088272095,-0.148529053,-1.291778564,41.34402466,22.43469238,-72.24264526
0,40:06.4,0:27,60,0,40:14.2,1540932014,0.330060468,0.060704627,0.255931379,0.088272095,-0.148529053,-1.291778564,40.97105408,22.50776672,-72.49440002
0,40:06.4,0:27,60,0,40:14.2,1540932014,-0.180690154,-0.308659838,0.263094749,0.139343262,-0.122283936,-1.224761963,40.59594727,23.28103638,-72.48602295
0,40:06.4,0:27,60,0,40:14.2,1540932014,-0.303496767,-0.358342439,0.2694882,0.140045166,-0.099441528,-1.202590942,40.59594727,23.28103638,-72.48602295
0,40:06.4,0:27,60,0,40:14.2,1540932014,-0.303496767,-0.358342439,0.2694882,0.140045166,-0.099441528,-1.202590942,40.09031677,23.45953369,-72.11657715
0,40:06.4,0:27,60,0,40:14.2,1540932014,-0.099821669,-0.263468657,0.128202444,0.104446411,-0.03024292,-1.097640991,40.18885803,23.59640503,-71.71585083
0,40:06.4,0:27,60,0,40:14.3,1540932014,0.035376899,-0.138072386,0.091915277,0.114273071,-0.039993286,-1.01965332,40.75976563,22.7056427,-72.18629456
0,40:06.4,0:27,60,0,40:14.3,1540932014,0.075480377,-0.119253957,0.158322264,0.16569519,-0.091766357,-0.959243774,40.50671387,22.44465637,-72.2878418
0,40:06.4,0:27,60,0,40:14.3,1540932014,-0.002755306,-0.119948775,0.249363491,0.180435181,-0.117233276,-0.878250122,40.26881409,23.11294556,-72.35395813
0,40:06.4,0:27,60,0,40:14.3,1540932014,-0.139149901,-0.041965294,0.279476652,0.152175903,-0.109176636,-0.796417236,39.78129578,23.21134949,-71.51817322
0,40:06.4,0:27,60,0,40:14.3,1540932014,-0.232954424,0.067181701,0.258216637,0.119979858,-0.100860596,-0.761505127,39.78129578,23.21134949,-71.51817322
0,40:06.4,0:27,60,0,40:14.3,1540932014,-0.228457144,0.199214836,0.228394293,0.103042603,-0.078598022,-0.775390625,40.12702942,23.60862732,-71.71876526
0,40:06.4,0:27,60,0,40:14.4,1540932014,-0.108022075,0.211243802,0.176978772,0.100631714,-0.061676025,-0.808898926,40.86218262,22.84291077,-71.31697083
0,40:06.4,0:27,60,0,40:14.4,1540932014,0.035032286,0.062810388,0.167123478,0.123962402,-0.075897217,-0.824356079,41.22929382,22.76927185,-71.76809692
0,40:06.4,0:27,60,0,40:14.4,1540932014,0.116036592,-0.165297881,0.215011376,0.144897461,-0.110336304,-0.820037842,40.94787598,22.66926575,-71.86517334
0,40:06.4,0:27,60,0,40:14.4,1540932014,0.100719421,-0.321108252,0.26622423,0.125213623,-0.14491272,-0.800842285,40.23532104,23.35531616,-71.25392151
0,40:06.4,0:27,60,0,40:14.4,1540932014,0.046411707,-0.381075715,0.245816959,0.063430786,-0.15032959,-0.769485474,40.23532104,23.35531616,-71.25392151
0,40:06.4,0:27,60,0,40:14.4,1540932014,-0.013879064,-0.30773359,0.172032483,0.016723633,-0.151702881,-0.742752075,40.04788208,23.39176941,-71.49694824
0,40:06.4,0:27,60,0,40:14.5,1540932014,-0.060684386,-0.144798732,0.111205618,0.00958252,-0.164733887,-0.747238159,40.17564392,22.66734314,-71.51696777
0,40:06.4,0:27,60,0,40:14.5,1540932014,-0.103278719,0.035093006,0.127500701,0.04083252,-0.194168091,-0.79548645,40.94281006,22.35949707,-71.87698364
0,40:06.4,0:27,60,0,40:14.5,1540932014,-0.092623145,0.169956283,0.186561891,0.067382813,-0.213287354,-0.892410278,40.4037323,22.38922119,-71.5149231
0,40:06.4,0:27,60,0,40:14.5,1540932015,-0.01375576,0.149691757,0.196155663,0.070831299,-0.201370239,-1.000656128,40.18133545,22.97717285,-71.42706299
0,40:06.4,0:27,60,0,40:14.5,1540932015,0.178839257,-0.049204564,-0.025804433,0.051559448,-0.16293335,-1.074279785,39.69184875,23.07536316,-70.82554626
0,40:06.4,0:27,60,0,40:14.5,1540932015,0.178839257,-0.049204564,-0.025804433,0.051559448,-0.16293335,-1.074279785,39.69184875,23.07536316,-70.82554626
0,40:06.4,0:27,60,0,40:14.6,1540932015,0.187480149,-0.048919073,-0.117900272,0.064926147,-0.177429199,-1.074569702,40.17823792,22.66758728,-71.20457458
0,40:06.4,0:27,60,0,40:14.6,1540932015,0.132042723,0.096737196,-0.16482517,0.063919067,-0.186767578,-1.086791992,40.44696045,22.14782715,-71.4434967
0,40:06.4,0:27,60,0,40:14.6,1540932015,0.108337127,0.262468108,-0.168898475,0.082901001,-0.181747437,-1.158279419,40.07089233,21.91133118,-71.4727478
0,40:06.4,0:27,60,0,40:14.6,1540932015,0.107140835,0.361910543,-0.14950001,0.1040802,-0.175308228,-1.235412598,39.92324829,22.40641785,-71.54042053
0,40:06.4,0:27,60,0,40:14.6,1540932015,0.10335888,0.412688236,-0.125877505,0.108673096,-0.165786743,-1.30255127,39.46589661,22.65325928,-71.0877533
0,40:06.4,0:27,60,0,40:14.6,1540932015,0.158574998,0.214549317,-0.207520703,0.098968506,-0.127975464,-1.384048462,39.46589661,22.65325928,-71.0877533
0,40:06.4,0:27,60,0,40:14.7,1540932015,0.246389006,-0.239768388,-0.408353409,0.101898193,-0.060256958,-1.404159546,39.65139771,22.61662292,-71.07902527
0,40:06.4,0:27,60,0,40:14.7,1540932015,0.217407422,-0.545020178,-0.550076722,0.090759277,-0.080871582,-1.323516846,39.33146667,22.05812073,-71.19526672
0,40:06.4,0:27,60,0,40:14.7,1540932015,0.107087838,-0.503937456,-0.551070348,0.063522339,-0.155166626,-1.206207275,39.05656433,21.56761169,-71.61878967
0,40:06.4,0:27,60,0,40:14.7,1540932015,-0.006309029,-0.318339363,-0.439444483,0.072311401,-0.18359375,-1.131149292,38.22431946,21.88734436,-71.65216064
0,40:06.4,0:27,60,0,40:14.7,1540932015,-0.096633333,-0.147002231,-0.333196073,0.064590454,-0.159255981,-1.082962036,37.21485901,22.55378723,-71.29196167
0,40:06.4,0:27,60,0,40:14.7,1540932015,-0.269781681,0.170301162,-0.285645066,0.019622803,-0.036117554,-1.024581909,37.21485901,22.55378723,-71.29196167
0,40:06.4,0:27,60,0,40:14.8,1540932015,-0.311968283,0.169620192,-0.284564888,0.022979736,-0.012512207,-1.046630859,37.13618469,23.03736877,-70.49763489
0,40:06.4,0:27,60,0,40:14.8,1540932015,-0.286033088,0.125029554,-0.285696998,0.027557373,0.008255005,-1.043167114,37.46350098,22.50506592,-71.12414551
0,40:06.4,0:27,60,0,40:14.8,1540932015,-0.189125983,0.115429391,-0.281448723,0.027893066,0.013168335,-1.002120972,37.87120056,22.58088684,-70.70883179
0,40:06.4,0:27,60,0,40:14.8,1540932015,-0.042603121,0.113967316,-0.267564599,0.028381348,-0.002090454,-0.94442749,37.37715149,22.67863464,-70.6539917
0,40:06.4,0:27,60,0,40:14.8,1540932015,0.103481119,0.063888436,-0.266590681,0.035339355,-0.024932861,-0.877838135,36.30392456,23.35710144,-70.53100586
0,40:06.4,0:27,60,0,40:14.8,1540932015,0.178610225,-0.00839455,-0.2227926,0.048980713,-0.063278198,-0.79598999,36.16474915,23.46186829,-70.69078064
0,40:06.4,0:27,60,0,40:14.9,1540932015,0.158078318,-0.038855254,-0.129660259,0.061935425,-0.102401733,-0.716827393,36.16474915,23.46186829,-70.69078064
0,40:06.4,0:27,60,0,40:14.9,1540932015,0.052548696,-0.021003553,-0.012888901,0.071777344,-0.129821777,-0.661071777,36.43478394,22.94224548,-70.77351379
0,40:06.4,0:27,60,0,40:14.9,1540932015,-0.066337479,0.026304042,0.072867017,0.051879883,-0.1431427,-0.65461731,37.00483704,22.75177002,-70.82765198
0,40:06.4,0:27,60,0,40:14.9,1540932015,-0.133487488,-0.041321341,0.104925617,0.014556885,-0.139175415,-0.708724976,36.64297485,22.43478394,-70.85914612
0,40:06.4,0:27,60,0,40:14.9,1540932015,-0.235331295,-0.210246448,0.127229858,0.007827759,-0.148620605,-0.786727905,35.86212158,23.13241577,-71.03175354
0,40:06.4,0:27,60,0,40:14.9,1540932015,-0.332985684,-0.061072942,0.113516176,-0.011199951,-0.145904541,-0.818283081,35.01957703,23.53302002,-70.59431458
0,40:06.4,0:27,60,0,40:15.0,1540932015,-0.220039424,0.377212001,0.055132228,-0.083023071,-0.126861572,-0.875335693,35.01957703,23.53302002,-70.59431458
0,40:06.4,0:27,60,0,40:15.0,1540932015,0.036411537,0.618142592,0.047871652,-0.084014893,-0.128463745,-0.986099243,35.73384094,23.54754639,-70.47688293
0,40:06.4,0:27,60,0,40:15.0,1540932015,0.194060021,0.567892737,0.06383464,-0.033676147,-0.155380249,-1.079391479,36.68083191,22.89328003,-70.91807556
0,40:06.4,0:27,60,0,40:15.0,1540932015,0.16094308,0.195033939,0.068736987,0.040603638,-0.181549072,-1.136795044,37.04678345,22.51023865,-70.91241455
0,40:06.4,0:27,60,0,40:15.0,1540932015,0.051469316,-0.433596181,0.11403496,0.107116699,-0.220535278,-1.174880981,36.1842041,22.99076843,-71.17564392
0,40:06.4,0:27,60,0,40:15.0,1540932015,-0.066346001,-0.829655906,0.173543028,0.09022522,-0.245605469,-1.136001587,35.07504272,23.2109375,-70.75939941
0,40:06.4,0:27,60,0,40:15.1,1540932015,-0.099934854,-0.814182407,0.171428478,0.030487061,-0.223236084,-1.069854736,35.07504272,23.2109375,-70.75939941
0,40:06.4,0:27,60,0,40:15.1,1540932015,-0.057464891,-0.563665235,0.173868999,0.005477905,-0.200622559,-1.049880981,35.0176239,23.53282166,-70.82861328
0,40:06.4,0:27,60,0,40:15.1,1540932015,0.019242937,-0.135298171,0.248268399,0.013031006,-0.196807861,-1.053237915,35.14407349,22.80828857,-71.00482178
0,40:06.4,0:27,60,0,40:15.1,1540932015,0.111018131,0.227804935,0.378268477,0.01121521,-0.212310791,-1.115890503,35.51313782,22.73483276,-71.22167969
0,40:06.4,0:27,60,0,40:15.1,1540932015,0.179789473,0.255210994,0.39220693,0.00479126,-0.202301025,-1.197570801,35.41215515,22.28842163,-71.32183838
0,40:06.4,0:27,60,0,40:15.1,1540932015,0.140442066,0.092582665,0.312772025,0.004943848,-0.172622681,-1.20741272,34.46127319,22.94235229,-71.34922791
0,40:06.4,0:27,60,0,40:15.2,1540932015,-0.053465888,-0.017833592,0.26021028,0.036651611,-0.157714844,-1.137969971,34.46127319,22.94235229,-71.34922791
0,40:06.4,0:27,60,0,40:15.2,1540932015,-0.382042176,0.050844273,0.373885446,0.09967041,-0.170913696,-1.095626831,34.55915833,23.0791626,-71.02656555
0,40:06.4,0:27,60,0,40:15.2,1540932015,-0.72874314,0.349534833,0.623848149,0.131408691,-0.169204712,-1.124176025,35.13493347,23.19854736,-70.99079895
0,40:06.4,0:27,60,0,40:15.2,1540932015,-0.746994582,0.321485355,0.649518625,0.099441528,-0.04675293,-1.267303467,36.28205872,23.12756348,-70.85298157
0,40:06.4,0:27,60,0,40:15.2,1540932015,-0.416924527,-0.062484151,0.397313008,0.049713135,0.085876465,-1.355117798,36.18615723,22.9909668,-70.94134521
0,40:06.4,0:27,60,0,40:15.2,1540932015,0.089761845,-0.529858536,0.021812887,0.020370483,0.148132324,-1.31463623,34.84629822,23.4889679,-70.83956909
0,40:06.4,0:27,60,0,40:15.3,1540932015,0.407740083,-0.739675682,-0.204474313,0.039108276,0.09236145,-1.113464355,33.90652466,23.75282288,-70.64668274
0,40:06.4,0:27,60,0,40:15.3,1540932015,0.408859676,-0.518939575,-0.228832117,0.069793701,-0.006286621,-0.888931274,33.90652466,23.75282288,-70.64668274
0,40:06.4,0:27,60,0,40:15.3,1540932015,0.203124889,-0.166067269,-0.07200149,0.104400635,-0.101364136,-0.780227661,33.90016174,23.44294739,-70.81468201
0,40:06.4,0:27,60,0,40:15.3,1540932015,-0.016067383,0.102577242,0.082586756,0.095001221,-0.125656128,-0.761856079,34.5585022,23.0790863,-71.10466003
0,40:06.4,0:27,60,0,40:15.3,1540932015,-0.11116354,0.195366834,0.097716174,0.076873779,-0.072265625,-0.787612915,34.83947754,22.4786377,-71.58007813
0,40:06.4,0:27,60,0,40:15.3,1540932015,-0.049392583,0.134465134,0.032303611,0.073120117,-0.029647827,-0.831283569,34.20953369,22.68148804,-71.29457092
0,40:06.4,0:27,60,0,40:15.4,1540932015,0.08046182,0.03596386,0.009662747,0.086074829,-0.039199829,-0.847457886,33.51577759,22.8963623,-71.24624634
0,40:06.4,0:27,60,0,40:15.4,1540932015,0.125423169,0.00722196,0.056734386,0.104278564,-0.070861816,-0.821517944,33.51577759,22.8963623,-71.24624634
0,40:06.4,0:27,60,0,40:15.4,1540932015,0.112475413,-0.010190852,0.114542558,0.105163574,-0.102645874,-0.813812256,33.78613281,23.38641357,-71.36941528
0,40:06.4,0:27,60,0,40:15.4,1540932015,0.127165676,-0.125025293,0.125105987,0.084899902,-0.110733032,-0.825256348,34.56634521,22.6887207,-71.27490234
0,40:06.4,0:27,60,0,40:15.4,1540932015,0.155333398,-0.170479061,0.064004017,0.045928955,-0.106613159,-0.800338745,34.83508301,22.16894531,-71.51379395
0,40:06.4,0:27,60,0,40:15.4,1540932015,0.127710558,-0.091102214,0.025557558,0.040283203,-0.135894775,-0.762023926,34.16273499,21.91288757,-71.71603394
0,40:06.4,0:27,60,0,40:15.5,1540932015,0.037178794,0.149785501,0.050506317,0.048828125,-0.179092407,-0.759277344,33.29048157,22.47434998,-71.43032837
0,40:06.4,0:27,60,0,40:15.5,1540932015,-0.026551183,0.331919088,0.097864246,0.063064575,-0.200820923,-0.841339111,33.71484375,22.7791748,-71.31784058
0,40:06.4,0:27,60,0,40:15.5,1540932015,0.000292948,0.268988059,0.082788091,0.074584961,-0.181274414,-0.969940186,33.71484375,22.7791748,-71.31784058
0,40:06.4,0:27,60,0,40:15.5,1540932016,0.071112526,0.043744818,-0.020309533,0.078353882,-0.162826538,-1.039993286,34.60697937,22.44703674,-71.51585388
0,40:06.4,0:27,60,0,40:15.5,1540932016,0.139920087,-0.170675869,-0.120180737,0.080444336,-0.178039551,-1.059005737,35.07850647,22.11972046,-71.97073364
0,40:06.4,0:27,60,0,40:15.5,1540932016,0.151931476,-0.243160456,-0.144902861,0.083480835,-0.209106445,-1.049163818,34.47843933,21.46131897,-72.02789307
0,40:06.4,0:27,60,0,40:15.6,1540932016,0.129252795,-0.195244862,-0.17160984,0.05418396,-0.220184326,-1.051498413,33.38400269,21.91030884,-72.14878845
0,40:06.4,0:27,60,0,40:15.6,1540932016,0.099947903,-0.067252274,-0.191791274,0.031402588,-0.214523315,-1.08392334,32.98654175,22.14477539,-71.92749023
0,40:06.4,0:27,60,0,40:15.6,1540932016,0.09294592,0.188139015,-0.207537481,0.015075684,-0.195785522,-1.134963989,32.98654175,22.14477539,-71.92749023
0,40:06.4,0:27,60,0,40:15.6,1540932016,0.150479521,0.459250678,-0.252193099,-0.006546021,-0.167434692,-1.233016968,33.63703918,22.17129517,-72.04724121
0,40:06.4,0:27,60,0,40:15.6,1540932016,0.303303954,0.538234177,-0.354935191,-0.005828857,-0.134063721,-1.345870972,34.83265686,21.46827698,-72.32060242
0,40:06.4,0:27,60,0,40:15.6,1540932016,0.471668732,0.249488393,-0.49989824,0.022705078,-0.112686157,-1.41897583,34.8155365,20.53883362,-72.59031677
0,40:06.4,0:27,60,0,40:15.7,1540932016,0.24977708,-0.359281204,-0.553067985,0.060348511,-0.165420532,-1.265808105,33.48225403,20.64634705,-72.81497192
0,40:06.4,0:27,60,0,40:15.7,1540932016,0.24977708,-0.359281204,-0.553067985,0.060348511,-0.165420532,-1.265808105,32.6945343,20.72479248,-72.62072754
0,40:06.4,0:27,60,0,40:15.7,1540932016,-0.084600638,-0.339331464,-0.411609123,0.069152832,-0.203292847,-1.182144165,32.6945343,20.72479248,-72.62072754
0,40:06.4,0:27,60,0,40:15.7,1540932016,-0.458728433,0.177038693,-0.164583888,0.029891968,-0.093399048,-1.209732056,32.95199585,21.29547119,-72.58546448
0,40:06.4,0:27,60,0,40:15.7,1540932016,-0.458728433,0.177038693,-0.164583888,0.029891968,-0.093399048,-1.209732056,33.82992554,21.04382324,-72.78125
0,40:06.4,0:27,60,0,40:15.7,1540932016,-0.210865633,0.04962561,-0.272957766,0.009963989,0.018783569,-1.271316528,34.17974854,20.74111938,-73.00767517
0,40:06.4,0:27,60,0,40:15.8,1540932016,0.19980952,-0.153792759,-0.428582514,0.01083374,0.022201538,-1.052001953,33.32385254,20.52186584,-72.98432922
0,40:06.4,0:27,60,0,40:15.8,1540932016,0.19980952,-0.153792759,-0.428582514,0.01083374,0.022201538,-1.052001953,32.17993164,20.59315491,-72.73167419
0,40:06.4,0:27,60,0,40:15.8,1540932016,-0.031545409,0.044860949,-0.323337317,0.011810303,-0.06451416,-0.834228516,32.17993164,20.59315491,-72.73167419
0,40:06.4,0:27,60,0,40:15.8,1540932016,-0.151204699,0.103309079,-0.316811241,-0.004211426,-0.066848755,-0.803787231,32.28091431,21.03953552,-72.63150024
0,40:06.4,0:27,60,0,40:15.8,1540932016,-0.151204699,0.103309079,-0.316811241,-0.004211426,-0.066848755,-0.803787231,33.20471191,20.54673767,-72.44346619
0,40:06.4,0:27,60,0,40:15.8,1540932016,-0.034984083,0.006131662,-0.367289595,0.004547119,-0.044540405,-0.798965454,33.90744019,20.25086975,-73.11880493
0,40:06.4,0:27,60,0,40:15.9,1540932016,0.024750887,-0.024855282,-0.335216347,0.019760132,-0.06262207,-0.74911499,33.33950806,19.74111938,-73.32478333
0,40:06.4,0:27,60,0,40:15.9,1540932016,0.024750887,-0.024855282,-0.335216347,0.019760132,-0.06262207,-0.74911499,32.40151978,20.31440735,-73.5105896
0,40:06.4,0:27,60,0,40:15.9,1540932016,-0.006092514,0.079962743,-0.236560344,0.007522583,-0.107788086,-0.712478638,32.2179718,20.35122681,-73.28501892
0,40:06.4,0:27,60,0,40:15.9,1540932016,0.033108419,0.096935069,-0.247257463,-0.018478394,-0.113983154,-0.742736816,32.2179718,20.35122681,-73.28501892
0,40:06.4,0:27,60,0,40:15.9,1540932016,0.104996458,0.1104088,-0.272958832,-0.039855957,-0.140335083,-0.771652222,32.71838379,20.56338501,-73.17184448
0,40:06.4,0:27,60,0,40:15.9,1540932016,0.12963629,0.164021428,-0.215072096,-0.020599365,-0.194274902,-0.810333252,33.78182983,20.27510071,-73.35891724
0,40:06.4,0:27,60,0,40:16.0,1540932016,0.101241667,0.194189185,-0.117579627,0.003646851,-0.211380005,-0.846664429,33.95088196,19.30908203,-73.54180908
0,40:06.4,0:27,60,0,40:16.0,1540932016,0.009062205,0.167690998,-0.031921181,0.00012207,-0.199981689,-0.893722534,33.20689392,19.45541382,-73.8110199
0,40:06.4,0:27,60,0,40:16.0,1540932016,-0.107095028,0.033720413,-0.060971742,-0.031280518,-0.203277588,-0.960189819,32.54919434,19.81930542,-73.44293213
0,40:06.4,0:27,60,0,40:16.0,1540932016,-0.191134006,-0.169605811,-0.134020919,-0.015075684,-0.212524414,-1.015853882,32.54919434,19.81930542,-73.44293213
0,40:06.4,0:27,60,0,40:16.0,1540932016,-0.227630498,-0.239512991,-0.145877845,0.008773804,-0.234405518,-1.048599243,32.73062134,20.48268127,-73.40837097
0,40:06.4,0:27,60,0,40:16.0,1540932016,-0.200902481,-0.080957168,-0.09964164,0.017120361,-0.244659424,-1.091094971,33.71868896,20.28718567,-73.51802063
0,40:06.4,0:27,60,0,40:16.1,1540932016,-0.007309312,-0.007244064,-0.064258881,0.047790527,-0.234100342,-1.191177368,34.02020264,19.91612244,-73.82766724
0,40:06.4,0:27,60,0,40:16.1,1540932016,0.347021075,0.022435002,0.048132908,0.102584839,-0.216583252,-1.291152954,33.52832031,19.31365967,-74.03294373
0,40:06.4,0:27,60,0,40:16.1,1540932016,0.757293558,0.17369616,0.186361888,0.107696533,-0.189605713,-1.321716309,32.90423584,19.12594604,-74.15196228
0,40:06.4,0:27,60,0,40:16.1,1540932016,1.022831758,0.38618206,0.237961433,0.09161377,-0.138793945,-1.276550293,32.90423584,19.12594604,-74.15196228
0,40:06.4,0:27,60,0,40:16.1,1540932016,1.022423761,0.453250044,0.2369734,0.077972412,-0.120956421,-1.240585327,33.49176025,18.85533142,-73.81785583
0,40:06.4,0:27,60,0,40:16.1,1540932016,0.77974081,0.208045079,0.198178334,0.082138062,-0.136459351,-1.229232788,34.71250916,17.99101257,-74.48614502
0,40:06.4,0:27,60,0,40:16.2,1540932016,0.369311201,-0.149243015,0.190340384,0.107772827,-0.154678345,-1.193313599,35.53581238,17.36114502,-74.9331665
0,40:06.4,0:27,60,0,40:16.2,1540932016,-0.078820514,-0.347562496,0.280156025,0.104660034,-0.199615479,-1.142288208,35.09220886,16.82705688,-75.05525208
0,40:06.4,0:27,60,0,40:16.2,1540932016,-0.487233577,-0.121567711,0.464721344,0.094100952,-0.206756592,-1.096939087,34.04670715,17.3444519,-75.01481628
0,40:06.4,0:27,60,0,40:16.2,1540932016,-0.629968625,0.302278904,0.573435574,0.068389893,-0.128952026,-1.148651123,34.30935669,17.91564941,-74.35476685
0,40:06.4,0:27,60,0,40:16.2,1540932016,-0.387730688,0.477594798,0.509341809,0.058761597,0.01210022,-1.255828857,34.30935669,17.91564941,-74.35476685
0,40:06.4,0:27,60,0,40:16.2,1540932016,0.135660627,0.35984606,0.29811079,0.044235229,0.102172852,-1.282699585,35.64640808,18.11773682,-74.27450562
0,40:06.4,0:27,60,0,40:16.3,1540932016,0.573472326,0.119529594,0.108166418,0.063659668,0.096557617,-1.199859619,36.57919312,17.54394531,-74.71348572
0,40:06.4,0:27,60,0,40:16.3,1540932016,0.61820491,-0.065645057,0.055455003,0.097549438,0.006668091,-1.015701294,36.80435181,16.25588989,-74.98338318
0,40:06.4,0:27,60,0,40:16.3,1540932016,0.41272046,-0.273470691,0.046681219,0.119430542,-0.07208252,-0.854049683,35.56634521,16.49996948,-75.19775391
0,40:06.4,0:27,60,0,40:16.3,1540932016,0.107383981,-0.445764963,0.047613059,0.111236572,-0.12828064,-0.731643677,34.64205933,16.68345642,-74.85089111
0,40:06.4,0:27,60,0,40:16.3,1540932016,-0.181575388,-0.451618591,0.041250235,0.08807373,-0.147964478,-0.637557983,34.64205933,16.68345642,-74.85089111
0,40:06.4,0:27,60,0,40:16.3,1540932016,-0.396241352,-0.292780473,0.055419051,0.077651978,-0.154708862,-0.58807373,35.00898743,17.31018066,-74.80760193
0,40:06.4,0:27,60,0,40:16.4,1540932016,-0.512099512,0.060752031,0.101930094,0.068725586,-0.162979126,-0.584747314,36.19610596,16.99749756,-74.98886108
0,40:06.4,0:27,60,0,40:16.4,1540932016,-0.537720187,0.374369077,0.176212581,0.070617676,-0.164260864,-0.645492554,36.90844727,17.01182556,-75.10568237
0,40:06.4,0:27,60,0,40:16.4,1540932016,-0.518306542,0.431302401,0.227679501,0.082443237,-0.15145874,-0.730667114,36.49615479,17.32669067,-74.96028137
0,40:06.4,0:27,60,0,40:16.4,1540932016,-0.452605293,0.235084686,0.181374586,0.082565308,-0.135681152,-0.795394897,35.67089844,17.9563446,-74.74754333
0,40:06.4,0:27,60,0,40:16.4,1540932016,-0.368541814,-0.026192988,0.131772412,0.101318359,-0.127258301,-0.828170776,35.80973816,18.86122131,-74.70628357
0,40:06.4,0:27,60,0,40:16.4,1540932016,-0.321154058,-0.149822785,0.099482649,0.088699341,-0.186691284,-0.78894043,35.80973816,18.86122131,-74.70628357
0,40:06.4,0:27,60,0,40:16.5,1540932016,-0.321154058,-0.149822785,0.099482649,0.088699341,-0.186691284,-0.78894043,36.73857117,18.67819214,-74.50646973
0,40:06.4,0:27,60,0,40:16.5,1540932016,-0.38255883,0.052873335,0.138298488,0.083251953,-0.209243774,-0.797317505,37.60168457,18.50698853,-74.77813721
0,40:06.4,0:27,60,0,40:16.5,1540932016,-0.34893216,0.143530002,0.10734723,0.093383789,-0.197067261,-0.966522217,37.39692688,18.31434631,-74.79644775
0,40:06.4,0:27,60,0,40:16.5,1540932017,-0.34893216,0.143530002,0.10734723,0.093383789,-0.197067261,-0.966522217,36.61801147,19.01217651,-74.73475647
0,40:06.4,0:27,60,0,40:16.5,1540932017,-0.280775476,-0.024452346,0.026808977,0.095123291,-0.194488525,-1.043640137,36.46005249,19.58815002,-74.33161926
0,40:06.4,0:27,60,0,40:16.5,1540932017,-0.135480864,-0.305311179,-0.141697747,0.115951538,-0.198669434,-1.088165283,36.46005249,19.58815002,-74.33161926
0,40:06.4,0:27,60,0,40:16.6,1540932017,-0.135480864,-0.305311179,-0.141697747,0.115951538,-0.198669434,-1.088165283,36.92765808,19.65158081,-74.14770508
0,40:06.4,0:27,60,0,40:16.6,1540932017,-0.150246494,-0.330691104,-0.250953398,0.102172852,-0.219528198,-1.109344482,37.66888428,19.81422424,-74.80386353
0,40:06.4,0:27,60,0,40:16.6,1540932017,-0.178023264,-0.151903246,-0.264647372,0.089920044,-0.230941772,-1.125106812,37.49971008,19.07015991,-75.07495117
0,40:06.4,0:27,60,0,40:16.6,1540932017,-0.178023264,-0.151903246,-0.264647372,0.089920044,-0.230941772,-1.125106812,36.64230347,19.55119324,-74.71337891
0,40:06.4,0:27,60,0,40:16.6,1540932017,-0.115262145,0.353529042,-0.224417128,0.099090576,-0.208740234,-1.270782471,36.20292664,20.0271759,-74.40733337
0,40:06.4,0:27,60,0,40:16.7,1540932017,0.008074704,0.349117516,-0.22873571,0.125579834,-0.178390503,-1.382324219,36.20292664,20.0271759,-74.40733337
0,40:06.4,0:27,60,0,40:16.7,1540932017,0.008074704,0.349117516,-0.22873571,0.125579834,-0.178390503,-1.382324219,36.88946533,20.20274353,-74.20730591
0,40:06.4,0:27,60,0,40:16.7,1540932017,0.238469298,-0.63113216,-0.434534946,0.144393921,-0.101593018,-1.39692688,37.6424408,19.97540283,-74.56510925
0,40:06.4,0:27,60,0,40:16.7,1540932017,0.166839585,-0.864776875,-0.529041744,0.077392578,-0.157745361,-1.264953613,37.42549133,19.4723053,-75.45429993
0,40:06.4,0:27,60,0,40:16.7,1540932017,0.063466325,-0.646428292,-0.516968037,0.014801025,-0.207077026,-1.14503479,36.23329163,19.47525024,-75.28488159
0,40:06.4,0:27,60,0,40:16.7,1540932017,-0.011782091,-0.007899202,-0.430493332,0.01121521,-0.180969238,-1.049560547,35.33676147,19.49768066,-75.02056885
0,40:06.4,0:27,60,0,40:16.7,1540932017,0.087722928,0.493708521,-0.333520979,0.047546387,-0.106124878,-1.069030762,35.33676147,19.49768066,-75.02056885
0,40:06.4,0:27,60,0,40:16.8,1540932017,0.305989752,0.734598632,-0.239040546,0.07093811,-0.046875,-1.107528687,35.67593384,20.28546143,-74.89472961
0,40:06.4,0:27,60,0,40:16.8,1540932017,0.433278999,0.841053703,-0.117932496,0.082366943,-0.022888184,-1.076675415,37.1252594,19.8434906,-74.98846436
0,40:06.4,0:27,60,0,40:16.8,1540932017,0.279686243,0.795543209,0.000913997,0.083389282,-0.016647339,-1.019943237,38.53788757,19.25244141,-75.4800415
0,40:06.4,0:27,60,0,40:16.8,1540932017,-0.054928496,0.550856496,0.053164951,0.081695557,-0.011627197,-0.991088867,38.54637146,18.86213684,-75.57217407
0,40:06.4,0:27,60,0,40:16.8,1540932017,-0.371426816,0.310592227,0.037952709,0.065139771,0.007446289,-0.983688354,37.89308167,19.53575134,-75.27037048
0,40:06.4,0:27,60,0,40:16.8,1540932017,-0.460881066,0.207809123,-0.010341321,0.051452637,0.041351318,-0.99861145,37.96697998,20.14321899,-75.00956726
0,40:06.4,0:27,60,0,40:16.9,1540932017,-0.301708455,0.190275669,-0.065015219,0.050964355,0.057617188,-1.007034302,37.96697998,20.14321899,-75.00956726
0,40:06.4,0:27,60,0,40:16.9,1540932017,0.032509474,0.17429404,-0.11651676,0.057678223,0.04447937,-0.992614746,38.71600342,20.30665588,-74.72857666
0,40:06.4,0:27,60,0,40:16.9,1540932017,0.350157214,0.09971754,-0.081346788,0.082275391,0.00793457,-0.954406738,39.79740906,20.24749756,-75.0622406
0,40:06.4,0:27,60,0,40:16.9,1540932017,0.505884493,-0.033917753,-0.035502068,0.079330444,-0.02507019,-0.870300293,39.89698792,18.98368835,-75.57223511
0,40:06.4,0:27,60,0,40:16.9,1540932017,0.446206515,-0.204324909,-0.014280669,0.06237793,-0.052490234,-0.778778076,38.87789917,19.33992004,-75.77050781
0,40:06.4,0:27,60,0,40:16.9,1540932017,0.28701686,-0.31946082,-0.05186453,0.031112671,-0.069824219,-0.70690918,38.27374268,19.3815155,-75.80181885
0,40:06.4,0:27,60,0,40:17.0,1540932017,0.12215334,-0.259278706,-0.099939381,-0.013259888,-0.097061157,-0.678939819,38.27374268,19.3815155,-75.80181885
0,40:06.4,0:27,60,0,40:17.0,1540932017,0.040068058,-0.138333642,-0.124400249,-0.024917603,-0.13142395,-0.709915161,38.56088257,19.79135132,-75.61483765
0,40:06.4,0:27,60,0,40:17.0,1540932017,0.08476682,-0.088055557,-0.092223138,-0.005432129,-0.168502808,-0.779647827,39.29901123,19.64442444,-76.04850769
0,40:06.4,0:27,60,0,40:17.0,1540932017,0.143652241,0.027790352,0.00856659,0.021118164,-0.203323364,-0.821258545,39.77005005,19.00778198,-75.96853638
0,40:06.4,0:27,60,0,40:17.0,1540932017,0.184820716,0.167563166,0.119027854,0.035339355,-0.212265015,-0.856231689,39.42481995,18.91981506,-76.30282593
0,40:06.4,0:27,60,0,40:17.0,1540932017,0.196130363,0.269813372,0.217670542,0.053787231,-0.208465576,-0.907226563,38.86828613,19.02970886,-76.32901001
0,40:06.4,0:27,60,0,40:17.1,1540932017,0.211689349,0.369953822,0.292750646,0.067123413,-0.197006226,-0.964202881,38.86828613,19.02970886,-76.32901001
0,40:06.4,0:27,60,0,40:17.1,1540932017,0.256403291,0.421321938,0.322787375,0.074478149,-0.18359375,-1.032653809,39.34159851,19.40293884,-76.05519104
0,40:06.4,0:27,60,0,40:17.1,1540932017,0.365389963,0.469871365,0.362442909,0.114959717,-0.193862915,-1.105407715,40.82565308,19.10987854,-75.98536682
0,40:06.4,0:27,60,0,40:17.1,1540932017,0.684454771,0.467153609,0.546550963,0.221374512,-0.242553711,-1.234832764,41.75469971,18.22647095,-76.27996826
0,40:06.4,0:27,60,0,40:17.1,1540932017,1.013876879,0.500147245,0.97164447,0.332855225,-0.306350708,-1.286453247,42.32363892,17.335495,-76.98471069
0,40:06.4,0:27,60,0,40:17.1,1540932017,1.10970354,0.674176034,1.310228385,0.287918091,-0.315139771,-1.235061646,42.15264893,16.28198242,-76.87710571
0,40:06.4,0:27,60,0,40:17.2,1540932017,0.966555435,0.721695084,1.401344713,0.189147949,-0.253311157,-1.172988892,42.15264893,16.28198242,-76.87710571
0,40:06.4,0:27,60,0,40:17.2,1540932017,0.683562079,0.427538555,1.258625378,0.110336304,-0.196060181,-1.150909424,42.67948914,16.33296204,-77.00267029
0,40:06.4,0:27,60,0,40:17.2,1540932017,0.268294305,-0.048810683,1.012910417,0.09274292,-0.157943726,-1.106155396,43.61680603,15.75961304,-76.89497375
0,40:06.4,0:27,60,0,40:17.2,1540932017,-0.205434382,-0.456585919,0.799419973,0.094848633,-0.16267395,-1.054626465,44.45497131,15.04931641,-77.26612854
0,40:06.4,0:27,60,0,40:17.2,1540932017,-1.102718867,-0.031228227,0.718775194,0.092468262,-0.209869385,-0.981246948,44.33699036,15.38354492,-77.18203735
0,40:06.4,0:27,60,0,40:17.2,1540932017,-1.102718867,-0.031228227,0.718775194,0.092468262,-0.209869385,-0.981246948,43.85682678,16.41044617,-77.24798584
0,40:06.4,0:27,60,0,40:17.3,1540932017,-1.131632807,0.252422398,0.721273772,0.109481812,-0.168167114,-1.135116577,43.7664032,17.28404236,-76.75201416
0,40:06.4,0:27,60,0,40:17.3,1540932017,-0.317372369,-0.215242006,0.491336443,0.111251831,-0.030822754,-1.265182495,43.7664032,17.28404236,-76.75201416
0,40:06.4,0:27,60,0,40:17.3,1540932017,-0.317372369,-0.215242006,0.491336443,0.111251831,-0.030822754,-1.265182495,43.80815125,17.74287415,-76.34237671
0,40:06.4,0:27,60,0,40:17.3,1540932017,-0.084311153,-0.348964118,0.37332059,0.098999023,-0.043716431,-1.123336792,44.48509216,17.60824585,-76.70085144
0,40:06.4,0:27,60,0,40:17.3,1540932017,-0.174804834,-0.256593441,0.211756194,0.056808472,-0.11517334,-0.88180542,44.82546997,16.68608093,-76.87278748
0,40:06.4,0:27,60,0,40:17.3,1540932017,-0.174804834,-0.256593441,0.211756194,0.056808472,-0.11517334,-0.88180542,44.1353302,17.51982117,-77.58183289
0,40:06.4,0:27,60,0,40:17.4,1540932017,-0.235866857,-0.081990208,-0.027886759,0.040008545,-0.084884644,-0.810424805,43.19555664,17.78367615,-77.38894653
0,40:06.4,0:27,60,0,40:17.4,1540932017,-0.134160468,0.056925335,-0.118763136,0.0650177,-0.100860596,-0.807800293,43.19555664,17.78367615,-77.38894653
0,40:06.4,0:27,60,0,40:17.4,1540932017,-0.134160468,0.056925335,-0.118763136,0.0650177,-0.100860596,-0.807800293,43.18621826,18.87431335,-76.88049316
0,40:06.4,0:27,60,0,40:17.4,1540932017,0.021778266,0.172998412,-0.037272005,0.145187378,-0.191375732,-0.836212158,44.0153656,18.24501038,-76.62463379
0,40:06.4,0:27,60,0,40:17.4,1540932017,0.021778266,0.172998412,-0.037272005,0.145187378,-0.191375732,-0.836212158,44.81092834,17.77619934,-76.98910522
0,40:06.4,0:27,60,0,40:17.4,1540932017,0.062928366,-0.032026376,0.013866547,0.152267456,-0.198074341,-0.847671509,44.47859192,17.60760498,-77.48182678
0,40:06.4,0:27,60,0,40:17.5,1540932017,-0.014287859,-0.283188832,-0.014267087,0.114196777,-0.188919067,-0.736328125,43.61860657,18.08837891,-77.43264771
0,40:06.4,0:27,60,0,40:17.5,1540932017,-0.014287859,-0.283188832,-0.014267087,0.114196777,-0.188919067,-0.736328125,43.18232727,18.87393188,-77.34907532
0,40:06.4,0:27,60,0,40:17.5,1540932017,-0.182654235,-0.015706791,0.038575622,0.128540039,-0.2552948,-0.745529175,43.18232727,18.87393188,-77.34907532
0,40:06.4,0:27,60,0,40:17.5,1540932018,-0.164131151,0.061725682,0.105060107,0.139511108,-0.253723145,-0.815368652,43.65969849,18.54714966,-77.10108948
0,40:06.4,0:27,60,0,40:17.5,1540932018,-0.111743842,0.036183038,0.145708734,0.142913818,-0.250610352,-0.88949585,44.52476501,18.37614441,-77.13847351
0,40:06.4,0:27,60,0,40:17.5,1540932018,-0.0828821,-0.033308422,0.143474342,0.154846191,-0.239303589,-0.920593262,44.64077759,18.04171753,-77.45684814
0,40:06.4,0:27,60,0,40:17.6,1540932018,-0.110495619,-0.054662713,0.140242063,0.168334961,-0.237625122,-0.932769775,43.85861206,18.73921204,-77.78565979
0,40:06.4,0:27,60,0,40:17.6,1540932018,-0.110495619,-0.054662713,0.140242063,0.168334961,-0.237625122,-0.932769775,43.52676392,19.27108765,-77.70584106
0,40:06.4,0:27,60,0,40:17.6,1540932018,-0.097992877,-0.075247617,0.118796426,0.155578613,-0.244506836,-1.011322021,43.52676392,19.27108765,-77.70584106
0,40:06.4,0:27,60,0,40:17.6,1540932018,-0.099315669,-0.110795225,0.085556181,0.136169434,-0.25038147,-1.042144775,43.47143555,19.28395081,-76.92778015
0,40:06.4,0:27,60,0,40:17.6,1540932018,-0.137184221,-0.10495944,0.06950957,0.133972168,-0.264480591,-1.062469482,44.14967346,19.14942932,-77.13008118
0,40:06.4,0:27,60,0,40:17.6,1540932018,-0.202240986,0.036304212,0.062203454,0.136001587,-0.25692749,-1.090087891,44.60128784,18.59275818,-77.6726532
0,40:06.4,0:27,60,0,40:17.7,1540932018,-0.229031321,0.210709039,0.060283314,0.123321533,-0.23260498,-1.163253784,44.39051819,19.09994507,-77.89941406
0,40:06.4,0:27,60,0,40:17.7,1540932018,-0.154274791,0.295674264,0.001472728,0.102554321,-0.193084717,-1.259979248,43.95046997,19.57585144,-77.67144775
0,40:06.4,0:27,60,0,40:17.7,1540932018,0.011330685,0.160513513,-0.135804171,0.07963562,-0.15687561,-1.35055542,43.95046997,19.57585144,-77.67144775
0,40:06.4,0:27,60,0,40:17.7,1540932018,0.148745004,-0.060811153,-0.296739529,0.090133667,-0.124526978,-1.345336914,43.60700989,20.1884613,-77.27703857
0,40:06.4,0:27,60,0,40:17.7,1540932018,0.112163823,-0.144688477,-0.331101764,0.112854004,-0.149856567,-1.263702393,44.12567139,19.62010193,-77.19192505
0,40:06.4,0:27,60,0,40:17.8,1540932018,-0.0785779,0.104518154,-0.252575529,0.104598999,-0.192169189,-1.181610107,44.5032196,19.15632629,-77.50090027
0,40:06.4,0:27,60,0,40:17.8,1540932018,-0.199488875,0.494633969,-0.146049885,0.105178833,-0.163803101,-1.205688477,44.98358154,19.44836426,-78.08834839
0,40:06.4,0:27,60,0,40:17.8,1540932018,-0.057055297,0.614385671,-0.140582149,0.106811523,-0.062133789,-1.313400269,44.51010132,19.77552795,-77.86776733
0,40:06.4,0:27,60,0,40:17.8,1540932018,0.270595809,0.451578111,-0.244735449,0.087692261,0.016738892,-1.343383789,44.18212891,20.30776978,-77.3193512
0,40:06.4,0:27,60,0,40:17.8,1540932018,0.554166272,0.189869804,-0.395047191,0.085678101,0.058746338,-1.250854492,44.18212891,20.30776978,-77.3193512
0,40:06.4,0:27,60,0,40:17.8,1540932018,0.601447768,0.061798919,-0.398429139,0.104919434,0.014602661,-1.075820923,44.43875122,19.55941772,-76.70880127
0,40:06.4,0:27,60,0,40:17.8,1540932018,0.423083619,0.069567893,-0.290219578,0.100753784,-0.053283691,-0.931549072,45.30905151,18.99778748,-77.22877502
0,40:06.4,0:27,60,0,40:17.9,1540932018,0.116026206,0.064639713,-0.214120548,0.071273804,-0.094665527,-0.854629517,45.48168945,18.65061951,-78.16900635
0,40:06.4,0:27,60,0,40:17.9,1540932018,-0.164301859,0.084567615,-0.19689469,0.051132202,-0.091323853,-0.824050903,44.8734436,19.39224243,-78.17446899
0,40:06.4,0:27,60,0,40:17.9,1540932018,-0.259069914,0.099516737,-0.191499126,0.044952393,-0.076858521,-0.862350464,44.30973816,19.89259338,-77.95236206
0,40:06.4,0:27,60,0,40:17.9,1540932018,-0.17144499,0.110573383,-0.191506582,0.054229736,-0.058807373,-0.903015137,44.30973816,19.89259338,-77.95236206
0,40:06.4,0:27,60,0,40:17.9,1540932018,0.012984775,0.106532835,-0.164784424,0.074554443,-0.064682007,-0.920349121,44.17771912,19.99807739,-77.25308228
0,40:06.4,0:27,60,0,40:18.0,1540932018,0.145015779,0.037897315,-0.087798829,0.11076355,-0.084014893,-0.895339966,44.87145996,19.78318787,-77.3013916
0,40:06.4,0:27,60,0,40:18.0,1540932018,0.121598604,-0.080030388,-0.023686954,0.104415894,-0.11567688,-0.845443726,45.24331665,19.00959778,-77.70027161
0,40:06.4,0:27,60,0,40:18.0,1540932018,0.003253584,-0.207743077,0.010451576,0.076095581,-0.135070801,-0.80632019,44.86955261,19.39186096,-78.64306641
0,40:06.4,0:27,60,0,40:18.0,1540932018,-0.103088569,-0.302955613,0.002863697,0.046524048,-0.138946533,-0.783462524,43.82780457,20.21888733,-78.74700928
0,40:06.4,0:27,60,0,40:18.0,1540932018,-0.141128363,-0.085298387,0.030983749,0.033493042,-0.1587677,-0.786651611,43.82780457,20.21888733,-78.74700928
0,40:06.4,0:27,60,0,40:18.0,1540932018,-0.141128363,-0.085298387,0.030983749,0.033493042,-0.1587677,-0.786651611,43.2069397,20.4226532,-77.36813354
0,40:06.4,0:27,60,0,40:18.0,1540932018,-0.065664231,-0.015842346,0.062106248,0.041046143,-0.167984009,-0.839691162,43.62493896,20.41760254,-77.42362976
0,40:06.4,0:27,60,0,40:18.1,1540932018,0.008474445,-0.092253764,0.058781558,0.0390625,-0.175384521,-0.882247925,44.3883667,19.80014038,-77.63928223
0,40:06.4,0:27,60,0,40:18.1,1540932018,0.005665076,-0.171081468,0.032984315,0.034225464,-0.191390991,-0.873413086,44.39787292,20.02844238,-78.80114746
0,40:06.4,0:27,60,0,40:18.1,1540932018,-0.06934259,-0.083699957,-8.66E-05,0.030685425,-0.206130981,-0.843414307,43.81230164,20.29925537,-78.90097046
0,40:06.4,0:27,60,0,40:18.1,1540932018,-0.129943885,0.087711743,0.016202406,0.04624939,-0.230575562,-0.864425659,43.20680237,20.73188782,-77.98110962
0,40:06.4,0:27,60,0,40:18.1,1540932018,-0.130066657,0.203123824,0.096659432,0.060562134,-0.263656616,-0.941574097,43.20680237,20.73188782,-77.98110962
0,40:06.4,0:27,60,0,40:18.1,1540932018,-0.182598309,0.033292709,0.22710772,0.049087524,-0.278427124,-1.073623657,43.58366394,20.65919495,-77.26077271
0,40:06.4,0:27,60,0,40:18.2,1540932018,-0.182598309,0.033292709,0.22710772,0.049087524,-0.278427124,-1.073623657,44.14019775,20.54930115,-77.23458862
0,40:06.4,0:27,60,0,40:18.2,1540932018,-0.249552842,-0.13260678,0.220494026,0.045272827,-0.254119873,-1.090240479,44.80738831,20.41369629,-78.76452637
0,40:06.4,0:27,60,0,40:18.2,1540932018,-0.322470725,0.074603398,0.240042693,0.040527344,-0.214935303,-1.133956909,44.16372681,21.00636292,-79.01165771
0,40:06.4,0:27,60,0,40:18.2,1540932018,-0.250898803,0.16912804,0.23264603,0.04725647,-0.181259155,-1.208389282,43.60897827,21.8168335,-78.30911255
0,40:06.4,0:27,60,0,40:18.2,1540932018,-0.250898803,0.16912804,0.23264603,0.04725647,-0.181259155,-1.208389282,43.60897827,21.8168335,-78.30911255
0,40:06.4,0:27,60,0,40:18.2,1540932018,0.000405599,-0.038370026,0.12738512,0.059066772,-0.111618042,-1.278533936,43.64273071,21.34712219,-77.07583618
0,40:06.4,0:27,60,0,40:18.3,1540932018,0.000405599,-0.038370026,0.12738512,0.059066772,-0.111618042,-1.278533936,44.02664185,21.19325256,-77.21679688
0,40:06.4,0:27,60,0,40:18.3,1540932018,-0.068056815,-0.140461507,0.126204807,0.110473633,-0.108978271,-1.187759399,44.56115723,21.16307068,-78.12553406
0,40:06.4,0:27,60,0,40:18.3,1540932018,-0.227868052,0.043414586,0.238910583,0.138595581,-0.106887817,-1.148605347,44.42120361,21.57702637,-78.97640991
0,40:06.4,0:27,60,0,40:18.3,1540932018,-0.227868052,0.043414586,0.238910583,0.138595581,-0.106887817,-1.148605347,43.75500488,22.33125305,-78.51618958
0,40:06.4,0:27,60,0,40:18.3,1540932018,-0.208872523,-0.050043194,0.303042432,0.159622192,0.017852783,-1.259292603,43.75500488,22.33125305,-78.51618958
0,40:06.4,0:27,60,0,40:18.3,1540932018,-0.049221342,-0.359401579,0.194465354,0.147735596,0.064376831,-1.242294312,43.31460571,22.18861389,-77.14041138
0,40:06.4,0:27,60,0,40:18.4,1540932018,-0.049221342,-0.359401579,0.194465354,0.147735596,0.064376831,-1.242294312,43.5401001,21.9102478,-77.45074463
0,40:06.4,0:27,60,0,40:18.4,1540932018,0.196186023,-0.537373976,0.022848857,0.126678467,0.023101807,-0.994491577,43.76493835,21.63182068,-77.83918762
0,40:06.4,0:27,60,0,40:18.4,1540932018,0.208932711,-0.416381774,0.029420207,0.134002686,-0.020797729,-0.870162964,43.6346283,21.96484375,-79.23892212
0,40:06.4,0:27,60,0,40:18.4,1540932018,0.074684891,-0.09964883,0.126220786,0.140060425,-0.070831299,-0.780548096,42.8165741,22.20407104,-79.27452087
0,40:06.4,0:27,60,0,40:18.4,1540932018,-0.109589079,0.263253207,0.157767794,0.122802734,-0.058853149,-0.757751465,42.24075317,22.47584534,-78.20288086
0,40:06.4,0:27,60,0,40:18.5,1540932018,-0.220671925,0.441754775,0.145164384,0.134262085,-0.015014648,-0.833328247,42.24075317,22.47584534,-78.20288086
0,40:06.4,0:27,60,0,40:18.5,1540932018,-0.254111374,0.46174606,0.094866592,0.149963379,0.008377075,-0.921615601,42.7504425,21.98849487,-77.49079895
0,40:06.4,0:27,60,0,40:18.5,1540932018,-0.210777216,0.352267503,0.04974492,0.168716431,0.009384155,-0.992492676,43.65527344,22.27615356,-77.3527832
0,40:06.4,0:27,60,0,40:18.5,1540932018,-0.131697843,0.126632245,0.024817732,0.186569214,-0.004714966,-1.032089233,44.54141235,22.25268555,-78.86663818
0,40:06.4,0:27,60,0,40:18.5,1540932019,-0.047205329,-0.082856534,0.006334329,0.182266235,-0.033996582,-1.018508911,43.8997345,22.84552002,-78.87947083
0,40:06.4,0:27,60,0,40:18.5,1540932019,-0.009469402,-0.109125955,-0.006557502,0.153839111,-0.056838989,-0.942245483,43.01020813,23.17793274,-78.36906433
0,40:06.4,0:27,60,0,40:18.5,1540932019,-0.032106271,0.053431267,-0.030981352,0.131011963,-0.071350098,-0.870941162,43.01020813,23.17793274,-78.36906433
0,40:06.4,0:27,60,0,40:18.6,1540932019,-0.023656061,0.155188522,-0.072621473,0.118438721,-0.084838867,-0.887039185,42.80101013,23.06674194,-77.2137146
0,40:06.4,0:27,60,0,40:18.6,1540932019,0.025269404,0.085560175,-0.088782068,0.141983032,-0.097335815,-0.925567627,43.4599762,22.70295715,-77.42558289
0,40:06.4,0:27,60,0,40:18.6,1540932019,0.01280075,-0.006235525,-0.094246608,0.147903442,-0.113830566,-0.917709351,44.08979797,22.80934143,-78.32406616
0,40:06.4,0:27,60,0,40:18.6,1540932019,-0.077084665,-0.03455052,-0.100685066,0.149169922,-0.131027222,-0.897613525,43.99307251,22.98191833,-79.10350037
0,40:06.4,0:27,60,0,40:18.6,1540932019,-0.122306472,-0.030721694,-0.138149617,0.14289856,-0.139709473,-0.914825439,43.24253845,23.51875305,-79.04627991
0,40:06.4,0:27,60,0,40:18.6,1540932019,-0.047517452,-0.047509462,-0.176739354,0.139953613,-0.145492554,-0.954437256,43.24253845,23.51875305,-79.04627991
0,40:06.4,0:27,60,0,40:18.7,1540932019,0.066681026,-0.018251975,-0.193864545,0.138442993,-0.160598755,-0.971084595,42.15734863,23.65939331,-77.46084595
0,40:06.4,0:27,60,0,40:18.7,1540932019,0.125537685,0.068840584,-0.205550762,0.142974854,-0.166900635,-0.9662323,42.73721313,23.07875061,-77.45092773
0,40:06.4,0:27,60,0,40:18.7,1540932019,0.130253611,0.117523435,-0.219413049,0.149230957,-0.161102295,-0.979064941,43.78321838,22.87065125,-78.02622986
0,40:06.4,0:27,60,0,40:18.7,1540932019,0.117392141,0.090696614,-0.241931141,0.159759521,-0.160491943,-1.01852417,43.75453186,23.65011597,-79.24771118
0,40:06.4,0:27,60,0,40:18.7,1540932019,0.105291003,0.042076081,-0.225925276,0.184524536,-0.168533325,-1.053787231,42.98410034,23.9576416,-79.27816772
0,40:06.4,0:27,60,0,40:18.7,1540932019,0.11006898,0.002878078,-0.172431691,0.214981079,-0.171447754,-1.079330444,41.75532532,23.89338684,-77.78622437
0,40:06.4,0:27,60,0,40:18.8,1540932019,0.118312796,-0.009235843,-0.138181043,0.233535767,-0.153335571,-1.093322754,41.75532532,23.89338684,-77.78622437
0,40:06.4,0:27,60,0,40:18.8,1540932019,0.148878428,0.002145709,-0.082489551,0.259765625,-0.14642334,-1.116622925,42.22831726,23.25692749,-77.4719696
0,40:06.4,0:27,60,0,40:18.8,1540932019,0.24500869,-0.170176793,0.043636427,0.287811279,-0.117279053,-1.171127319,42.8589325,23.05412292,-77.67938232
0,40:06.4,0:27,60,0,40:18.8,1540932019,0.208921525,-0.0663215,0.125158718,0.308929443,-0.105651855,-1.12298584,43.52157593,22.91809082,-79.7559967
0,40:06.4,0:27,60,0,40:18.8,1540932019,0.140494797,0.083109002,0.247437759,0.33416748,-0.104568481,-1.131942749,43.15560913,23.30111694,-79.76164246
0,40:06.4,0:27,60,0,40:18.9,1540932019,0.110052203,0.127224532,0.37814464,0.359909058,-0.086227417,-1.18019104,42.38844299,23.60894775,-79.40162659
0,40:06.4,0:27,60,0,40:18.9,1540932019,0.080271137,0.245866228,0.533573113,0.384506226,-0.050994873,-1.193618774,42.38844299,23.60894775,-79.40162659
0,40:06.4,0:27,60,0,40:18.9,1540932019,0.110207997,0.207229885,0.656667348,0.400787354,0.003479004,-1.225143433,42.34301758,22.92237854,-77.9465332
0,40:06.4,0:27,60,0,40:18.9,1540932019,0.223936161,-0.020059462,0.691698036,0.394943237,0.060195923,-1.225097656,43.43553162,22.47317505,-78.05993652
0,40:06.4,0:27,60,0,40:18.9,1540932019,0.342444167,-0.199615375,0.679668538,0.372299194,0.088607788,-1.139251709,44.70559692,22.2958374,-79.7147522
0,40:06.4,0:27,60,0,40:18.9,1540932019,0.400455006,-0.083439766,0.700144252,0.33454895,0.082855225,-1.004364014,44.67199707,22.45629883,-80.33506775
0,40:06.4,0:27,60,0,40:18.9,1540932019,0.439487893,0.162368404,0.806453381,0.296646118,0.045211792,-0.918746948,44.18644714,22.16374207,-80.37237549
0,40:06.4,0:27,60,0,40:19.0,1540932019,0.438037002,0.380177697,0.979131148,0.274108887,0.010925293,-0.866729736,44.18644714,22.16374207,-80.37237549
0,40:06.4,0:27,60,0,40:19.0,1540932019,0.371843601,0.555322617,1.157126183,0.250808716,-0.001098633,-0.839370728,43.86856079,21.68730164,-78.53399658
0,40:06.4,0:27,60,0,40:19.0,1540932019,0.281651656,0.639966931,1.303960369,0.230880737,0.015457153,-0.846160889,45.15441895,20.81111145,-78.80889893
0,40:06.4,0:27,60,0,40:19.0,1540932019,0.125157919,0.627907072,1.449620367,0.225891113,0.029174805,-0.864227295,47.08882141,19.96125793,-79.43785095
0,40:06.4,0:27,60,0,40:19.0,1540932019,-0.102493086,0.557140224,1.570595258,0.216506958,0.049362183,-0.886810303,48.56312561,19.66723633,-80.53948975
0,40:06.4,0:27,60,0,40:19.1,1540932019,-0.265746193,0.384092544,1.689286755,0.214416504,0.061218262,-0.953216553,48.76982117,19.86006165,-80.28689575
0,40:06.4,0:27,60,0,40:19.1,1540932019,-0.315157951,0.204586964,1.797234262,0.208206177,0.084854126,-1.006378174,48.41311646,19.93473816,-78.58622742
0,40:06.4,0:27,60,0,40:19.1,1540932019,-0.276867021,0.144465304,1.86354431,0.192153931,0.104064941,-1.008972168,48.41311646,19.93473816,-78.58622742
0,40:06.4,0:27,60,0,40:19.1,1540932019,-0.276867021,0.144465304,1.86354431,0.192153931,0.104064941,-1.008972168,49.32089233,19.2130127,-78.01728821
0,40:06.4,0:27,60,0,40:19.1,1540932019,-0.062644473,0.311532057,2.036107561,0.188278198,0.113357544,-0.975326538,50.65438843,18.40507507,-78.2870636
0,40:06.4,0:27,60,0,40:19.1,1540932019,-0.039534893,0.431039014,2.118705768,0.187393188,0.110305786,-0.962097168,52.43022156,17.73997498,-79.698349
0,40:06.4,0:27,60,0,40:19.1,1540932019,-0.039534893,0.431039014,2.118705768,0.187393188,0.110305786,-0.962097168,53.07762146,17.45698547,-79.59562683
0,40:06.4,0:27,60,0,40:19.2,1540932019,-0.128964907,0.483262005,2.256932884,0.218902588,0.112731934,-0.961593628,53.17059326,16.97479248,-78.67181396
0,40:06.4,0:27,60,0,40:19.2,1540932019,-0.213724803,0.457825621,2.329740512,0.237808228,0.108078003,-0.958679199,53.17059326,16.97479248,-78.67181396
0,40:06.4,0:27,60,0,40:19.2,1540932019,-0.213724803,0.457825621,2.329740512,0.237808228,0.108078003,-0.958679199,53.40597534,16.38813782,-77.19772339
0,40:06.4,0:27,60,0,40:19.2,1540932019,-0.387730688,0.264309151,2.453763658,0.240020752,0.078491211,-0.977249146,54.81564331,15.17828369,-76.85385132
0,40:06.4,0:27,60,0,40:19.2,1540932019,-0.403084345,0.220875124,2.532957546,0.226089478,0.056716919,-0.978744507,56.56080627,13.66427612,-78.45452881
0,40:06.4,0:27,60,0,40:19.2,1540932019,-0.375792004,0.228901891,2.623984126,0.213745117,0.039428711,-0.96585083,57.35768127,13.19558716,-78.66281128
0,40:06.4,0:27,60,0,40:19.3,1540932019,-0.369068054,0.29014208,2.710797851,0.203521729,0.035186768,-0.933898926,57.1723175,12.92295837,-78.05856323
0,40:06.4,0:27,60,0,40:19.3,1540932019,-0.393401624,0.403730428,2.764486913,0.177688599,0.049041748,-0.911987305,57.1723175,12.92295837,-78.05856323
0,40:06.4,0:27,60,0,40:19.3,1540932019,-0.426490335,0.48281273,2.812781209,0.160934448,0.06262207,-0.931915283,57.12167358,12.62702942,-76.12084961
0,40:06.4,0:27,60,0,40:19.3,1540932019,-0.466400467,0.511112012,2.864227089,0.153488159,0.077758789,-0.972900391,58.16882324,11.10011292,-75.88659668
0,40:06.4,0:27,60,0,40:19.3,1540932019,-0.517124897,0.503950506,2.883505979,0.144668579,0.098358154,-0.996612549,59.62368774,9.257873535,-76.34437561
0,40:06.4,0:27,60,0,40:19.3,1540932019,-0.547565894,0.527871019,2.925306423,0.153503418,0.108657837,-1.011245728,60.68032837,7.959259033,-77.2719574
0,40:06.4,0:27,60,0,40:19.4,1540932019,-0.544496867,0.643303872,2.992912365,0.167251587,0.122055054,-1.024078369,61.17010498,7.242584229,-76.64752197
0,40:06.4,0:27,60,0,40:19.4,1540932019,-0.519942255,0.798575751,3.054137107,0.182678223,0.147399902,-1.051376343,60.78318787,7.168792725,-74.5637207
0,40:06.4,0:27,60,0,40:19.4,1540932019,-0.485380283,0.893262845,3.094938332,0.187072754,0.170608521,-1.0884552,60.78318787,7.168792725,-74.5637207
0,40:06.4,0:27,60,0,40:19.4,1540932019,-0.397555889,0.817745983,3.105532653,0.189956665,0.181182861,-1.138748169,61.47235107,5.325302124,-73.89234924
0,40:06.4,0:27,60,0,40:19.4,1540932019,-0.334474391,0.694811538,3.132137366,0.199798584,0.189086914,-1.129837036,62.20985413,3.158981323,-74.24511719
0,40:06.4,0:27,60,0,40:19.4,1540932019,-0.379532413,0.735075071,3.179315798,0.193786621,0.180770874,-1.0599823,63.28167725,0.770309448,-74.97828674
0,40:06.4,0:27,60,0,40:19.5,1540932019,-0.504839735,0.764202597,3.228641536,0.195922852,0.178939819,-1.030548096,63.47515869,0.034042358,-74.52682495
0,40:06.4,0:27,60,0,40:19.5,1540932019,-0.650431556,0.657246319,3.276733432,0.205078125,0.190887451,-1.039871216,63.01860046,-0.028274536,-73.38308716
0,40:06.4,0:27,60,0,40:19.5,1540932019,-0.780049471,0.457114024,3.325777407,0.206756592,0.202713013,-1.055221558,63.01860046,-0.028274536,-73.38308716
0,40:06.4,0:27,60,0,40:19.5,1540932020,-0.850698341,0.240337239,3.338377355,0.190261841,0.227966309,-1.064422607,62.20101929,-1.107925415,-72.68716431
0,40:06.4,0:27,60,0,40:19.5,1540932020,-0.831836236,0.106246545,3.285735182,0.156005859,0.255874634,-1.059066772,61.90409851,-3.146896362,-72.7792511
0,40:06.4,0:27,60,0,40:19.6,1540932020,-0.745532506,0.058371431,3.149655906,0.098007202,0.264053345,-1.044265747,61.95689392,-5.570480347,-74.81809998
0,40:06.4,0:27,60,0,40:19.6,1540932020,-0.654356257,0.073277144,2.990093941,0.058746338,0.229278564,-1.022354126,61.55847168,-6.345809937,-74.63444519
0,40:06.4,0:27,60,0,40:19.6,1540932020,-0.580608532,0.148766043,2.869161927,0.039398193,0.18421936,-1.005722046,61.014328,-6.625854492,-74.28417969
0,40:06.4,0:27,60,0,40:19.6,1540932020,-0.519600838,0.215715782,2.750364169,0.03553772,0.155029297,-1.010925293,61.014328,-6.625854492,-74.28417969
0,40:06.4,0:27,60,0,40:19.6,1540932020,-0.505506058,0.23222019,2.646507545,0.045669556,0.142044067,-1.004669189,59.86094666,-6.782867432,-72.86964417
0,40:06.4,0:27,60,0,40:19.6,1540932020,-0.547249244,0.254651463,2.546955121,0.050765991,0.121643066,-0.991607666,59.21537781,-8.209732056,-73.19207764
