SessionID,SessionDate,SessionDuration,SessionFrequency,RecordID,Timestamp,timeIntervalSince1970,GyroX,GyroY,GyroZ,AccX,AccY,AccZ,MagX,MagY,MagZ,WatchTimestamp,WatchtImeIntervalSince1970,WatchGyroX,WatchGyroY,WatchGyroZ,WatchAccX,WatchAccY,WatchAccZ
0,2018-10-30 16:40:06.3580,00:27,60,0,2018-10-30 16:40:06.3750,1540932006.37469,-0.13160916001397183,-0.1775793151703746,0.09404846863171226,0.03778076171875,-0.0568084716796875,-1.1602325439453125,39.688201904296875,29.278488159179688,-75.74668884277344,,,,,,,,,,
0,2018-10-30 16:40:06.3580,00:27,60,0,2018-10-30 16:40:06.3940,1540932006.394269,0.08437613386865347,-0.10469578666984906,0.012700881554696895,0.000701904296875,-0.04522705078125,-1.1199798583984375,39.62507629394531,29.290573120117188,-75.90580749511719,,,,,,,,,,
0,2018-10-30 16:40:06.3580,00:27,60,0,2018-10-30 16:40:06.4120,1540932006.411586,0.15916036043916856,-0.1246812127542397,-0.03767227783193388,0.0191497802734375,-0.06146240234375,-1.0999603271484375,39.35719299316406,29.110015869140625,-76.08322143554688,,,,,,,,,,
0,2018-10-30 16:40:06.3580,00:27,60,0,2018-10-30 16:40:06.4280,1540932006.428031,0.16128982404679593,-0.1289167041519017,-0.06552042071867446,0.0283050537109375,-0.0765838623046875,-1.06463623046875,39.35719299316406,29.110015869140625,-76.08322143554688,,,,,,,,,,
0,2018-10-30 16:40:06.3580,00:27,60,0,2018-10-30 16:40:06.4450,1540932006.444696,0.13725080046719568,-0.10279588754818653,-0.048348624325952536,0.0374908447265625,-0.0949859619140625,-1.0408172607421875,39.508575439453125,28.924545288085938,-76.15994262695312,,,,,,,,,,
0,2018-10-30 16:40:06.3580,00:27,60,0,2018-10-30 16:40:06.4610,1540932006.461303,0.10630433596825692,-0.030052441320999164,-0.042897133574560334,0.0368499755859375,-0.0989532470703125,-1.0091400146484375,39.247711181640625,29.053939819335938,-76.09124755859375,,,,,,,,,,
0,2018-10-30 16:40:06.3580,00:27,60,0,2018-10-30 16:40:06.4780,1540932006.4780722,0.09552465882394319,0.05868302093600502,-0.027793015452175936,0.0274658203125,-0.104705810546875,-0.996429443359375,39.41331481933594,28.787979125976562,-76.17021179199219,,,,,,,,,,
0,2018-10-30 16:40:06.3580,00:27,60,0,2018-10-30 16:40:06.4950,1540932006.494853,0.12350569344907872,0.1200233440076911,-0.017015468836734268,0.023712158203125,-0.1074371337890625,-1.0047760009765625,39.351470947265625,28.800186157226562,-76.17312622070312,,,,,,,,,,
0,2018-10-30 16:40:06.3580,00:27,60,0,2018-10-30 16:40:06.5160,1540932006.5156531,0.23886717396858612,0.16328346643882924,-0.022344187861873817,0.028717041015625,-0.1073150634765625,-0.990386962890625,39.53192138671875,28.453811645507812,-76.17619323730469,,,,,,,,,,
0,2018-10-30 16:40:06.3580,00:27,60,0,2018-10-30 16:40:06.5300,1540932006.529506,0.23886717396858612,0.16328346643882924,-0.022344187861873817,0.028717041015625,-0.1073150634765625,-0.990386962890625,39.53192138671875,28.453811645507812,-76.17619323730469,,,,,,,,,,
0,2018-10-30 16:40:06.3580,00:27,60,0,2018-10-30 16:40:06.5460,1540932006.54637,0.19222696748191942,0.2385206967107668,-0.06186203632923261,-0.0264892578125,-0.1193389892578125,-0.925811767578125,39.33158874511719,28.570877075195312,-76.26080322265625,,,,,,,,,,
0,2018-10-30 16:40:06.3580,00:27,60,0,2018-10-30 16:40:06.5620,1540932006.56176,0.19222696748191942,0.2385206967107668,-0.06186203632923261,-0.0264892578125,-0.1193389892578125,-0.925811767578125,39.64793395996094,28.119369506835938,-76.49456787109375,,,,,,,,,,
0,2018-10-30 16:40:06.3580,00:27,60,0,2018-10-30 16:40:06.5780,1540932006.578147,0.060030580447585115,0.3100513393775321,-0.05103335702086142,-0.04443359375,-0.1441497802734375,-0.912994384765625,39.679443359375,28.267959594726562,-76.72151184082031,,,,,,,,,,
0,2018-10-30 16:40:06.3580,00:27,60,0,2018-10-30 16:40:06.5950,1540932006.5947871,0.024391093475708718,0.21639621963882452,-0.07684098588038328,-0.049591064453125,-0.1474151611328125,-1.0040130615234375,39.75743103027344,28.175445556640625,-76.48651123046875,,,,,,,,,,
0,2018-10-30 16:40:06.3580,00:27,60,0,2018-10-30 16:40:06.6110,1540932006.6113439,0.024391093475708718,0.21639621963882452,-0.07684098588038328,-0.049591064453125,-0.1474151611328125,-1.0040130615234375,39.88043212890625,28.150955200195312,-76.55879211425781,,,,,,,,,,
0,2018-10-30 16:40:06.3580,00:27,60,0,2018-10-30 16:40:06.6280,1540932006.6275191,0.054969509111998535,0.21291786493907203,-0.09184470282967169,-0.051422119140625,-0.15789794921875,-0.992706298828125,39.88043212890625,28.150955200195312,-76.55879211425781,,,,,,,,,,
0,2018-10-30 16:40:06.3580,00:27,60,0,2018-10-30 16:40:06.6450,1540932006.6448488,0.020720192229143498,0.2843800643658223,-0.02856746269717098,-0.0423736572265625,-0.1870269775390625,-0.9835662841796875,40.08274841308594,28.034088134765625,-76.23992919921875,,,,,,,,,,
0,2018-10-30 16:40:06.3580,00:27,60,0,2018-10-30 16:40:06.6610,1540932006.661371,0.020720192229143498,0.2843800643658223,-0.02856746269717098,-0.0423736572265625,-0.1870269775390625,-0.9835662841796875,40.177886962890625,28.479888916015625,-76.84260559082031,,,,,,,,,,
0,2018-10-30 16:40:06.3580,00:27,60,0,2018-10-30 16:40:06.6780,1540932006.6781769,-0.12839312668159214,0.24673628235755227,0.005689577352845285,-0.0447540283203125,-0.1960296630859375,-0.986846923828125,40.43437194824219,28.040802001953125,-76.84500122070312,,,,,,,,,,
0,2018-10-30 16:40:06.3580,00:27,60,0,2018-10-30 16:40:06.6950,1540932006.694917,-0.12475737916141597,0.18613125806283704,0.005613943577887034,-0.0417327880859375,-0.191680908203125,-1.0166015625,40.59278869628906,28.165283203125,-76.67564392089844,,,,,,,,,,
0,2018-10-30 16:40:06.3580,00:27,60,0,2018-10-30 16:40:06.7120,1540932006.711738,-0.12475737916141597,0.18613125806283704,0.005613943577887034,-0.0417327880859375,-0.191680908203125,-1.0166015625,40.42652893066406,28.431182861328125,-76.67478942871094,,,,,,,,,,
0,2018-10-30 16:40:06.3580,00:27,60,0,2018-10-30 16:40:06.7280,1540932006.728321,0.024300279682537018,-0.006521548877386038,-0.05034439724685792,-0.0416107177734375,-0.19390869140625,-1.01031494140625,40.4356689453125,28.040939331054688,-76.68881225585938,,,,,,,,,,
0,2018-10-30 16:40:06.3580,00:27,60,0,2018-10-30 16:40:06.7450,1540932006.744901,0.02954377755279403,-0.12544181156156634,-0.07726389586148787,-0.0435943603515625,-0.20831298828125,-0.9752960205078125,40.4356689453125,28.040939331054688,-76.68881225585938,,,,,,,,,,
0,2018-10-30 16:40:06.3580,00:27,60,0,2018-10-30 16:40:06.7620,1540932006.761579,0.02954377755279403,-0.12544181156156634,-0.07726389586148787,-0.0435943603515625,-0.20831298828125,-0.9752960205078125,40.37382507324219,28.053146362304688,-76.69172668457031,,,,,,,,,,
0,2018-10-30 16:40:06.3580,00:27,60,0,2018-10-30 16:40:06.7780,1540932006.778345,-0.12504526687525352,-0.31517153288931843,-0.13528725179548026,-0.065582275390625,-0.25653076171875,-0.8983306884765625,40.00657653808594,28.43603515625,-76.85356140136719,,,,,,,,,,
0,2018-10-30 16:40:06.3580,00:27,60,0,2018-10-30 16:40:06.7950,1540932006.794821,-0.19567735899022606,-0.20522532413037817,-0.14155979511094388,-0.0879364013671875,-0.2677764892578125,-0.8774566650390625,39.54093933105469,28.372802734375,-76.80319213867188,,,,,,,,,,
0,2018-10-30 16:40:06.3580,00:27,60,0,2018-10-30 16:40:06.8120,1540932006.8116322,-0.1972616735227142,-0.040805486854412105,-0.14135659591977084,-0.0952911376953125,-0.26666259765625,-0.897216796875,39.396697998046875,28.167831420898438,-76.97477722167969,,,,,,,,,,
0,2018-10-30 16:40:06.3580,00:27,60,0,2018-10-30 16:40:06.8280,1540932006.828422,-0.11799055314763363,0.08929552503424786,-0.13800261084292506,-0.08929443359375,-0.2596588134765625,-0.948883056640625,39.33551025390625,28.180099487304688,-76.89959716796875,,,,,,,,,,
0,2018-10-30 16:40:06.3580,00:27,60,0,2018-10-30 16:40:06.8470,1540932006.847033,-0.02147546471428997,0.14572870748135394,-0.14652312843452456,-0.08319091796875,-0.2478485107421875,-0.9922027587890625,39.170562744140625,28.446136474609375,-76.7425537109375,,,,,,,,,,
0,2018-10-30 16:40:06.3580,00:27,60,0,2018-10-30 16:40:06.8640,1540932006.8635921,0.022584138676089955,0.11301603454747462,-0.18619597287732598,-0.067413330078125,-0.2270660400390625,-1.0153656005859375,39.170562744140625,28.446136474609375,-76.7425537109375,,,,,,,,,,
0,2018-10-30 16:40:06.3580,00:27,60,0,2018-10-30 16:40:06.8790,1540932006.8789659,0.024099211020236034,0.03965340336684382,-0.2366173354796872,-0.0435333251953125,-0.2177581787109375,-1.022247314453125,39.363250732421875,28.01904296875,-76.98214721679688,,,,,,,,,,
0,2018-10-30 16:40:06.3580,00:27,60,0,2018-10-30 16:40:06.8940,1540932006.894353,0.024099211020236034,0.03965340336684382,-0.2366173354796872,-0.0435333251953125,-0.2177581787109375,-1.022247314453125,39.118377685546875,28.377395629882812,-77.29437255859375,,,,,,,,,,
0,2018-10-30 16:40:06.3580,00:27,60,0,2018-10-30 16:40:06.9110,1540932006.9109669,0.008658735652174628,0.07980401890920544,-0.23228064396060213,-0.0276336669921875,-0.22369384765625,-1.0226287841796875,39.152008056640625,27.825775146484375,-77.78141784667969,,,,,,,,,,
0,2018-10-30 16:40:06.3580,00:27,60,0,2018-10-30 16:40:06.9270,1540932006.926686,0.016617326253767422,0.04166994894425182,-0.1819990973154701,0.002044677734375,-0.2304840087890625,-1.04376220703125,38.949859619140625,27.633407592773438,-77.48736572265625,,,,,,,,,,
0,2018-10-30 16:40:06.3580,00:27,60,0,2018-10-30 16:40:06.9430,1540932006.943258,0.03463920366644264,-0.03994075844846338,-0.10286033604656644,0.02191162109375,-0.2457122802734375,-1.0656280517578125,38.949859619140625,27.633407592773438,-77.48736572265625,,,,,,,,,,
0,2018-10-30 16:40:06.3580,00:27,60,0,2018-10-30 16:40:06.9600,1540932006.960011,0.029837790537138777,-0.08452340667693486,-0.03223729867930017,0.02178955078125,-0.23638916015625,-1.0836181640625,38.748199462890625,27.750320434570312,-77.7281494140625,,,,,,,,,,
0,2018-10-30 16:40:06.3580,00:27,60,0,2018-10-30 16:40:06.9770,1540932006.9766831,-0.019171830371371427,-0.13492719241610154,-0.022649918755014913,0.000152587890625,-0.218017578125,-1.095489501953125,38.375885009765625,27.823471069335938,-77.90180969238281,,,,,,,,,,
0,2018-10-30 16:40:06.3580,00:27,60,0,2018-10-30 16:40:06.9930,1540932006.9933162,-0.09324765609192544,-0.16765611063263033,-0.04516055418501868,-0.0212554931640625,-0.2100677490234375,-1.1052093505859375,38.19950866699219,27.469863891601562,-77.92457580566406,,,,,,,,,,
0,2018-10-30 16:40:06.3580,00:27,60,0,2018-10-30 16:40:07.0100,1540932007.009964,-0.1764099211357208,-0.14217365374220717,0.003079679484567631,-0.0032196044921875,-0.2267303466796875,-1.1415863037109375,38.26133728027344,27.4576416015625,-77.92166137695312,,,,,,,,,,
0,2018-10-30 16:40:06.3580,00:27,60,0,2018-10-30 16:40:07.0270,1540932007.026836,-0.21130878300844616,-0.13564890907151303,0.07805645260189545,0.030792236328125,-0.2136688232421875,-1.1946258544921875,37.945159912109375,27.208755493164062,-78.18228149414062,,,,,,,,,,
0,2018-10-30 16:40:06.3580,00:27,60,0,2018-10-30 16:40:07.0430,1540932007.043314,-0.19844997600110756,-0.21276366791195644,0.12721787369254017,0.039520263671875,-0.19085693359375,-1.2571258544921875,37.945159912109375,27.208755493164062,-78.18228149414062,,,,,,,,,,
0,2018-10-30 16:40:06.3580,00:27,60,0,2018-10-30 16:40:07.0600,1540932007.059898,-0.13656663438315433,-0.36783501081341735,0.07882291036362025,0.0368499755859375,-0.143798828125,-1.2636260986328125,37.746124267578125,27.325958251953125,-78.11068725585938,,,,,,,,,,
0,2018-10-30 16:40:06.3580,00:27,60,0,2018-10-30 16:40:07.0770,1540932007.076659,-0.1627407142086711,-0.3672539090635621,-0.0036264264563608986,0.01812744140625,-0.1062164306640625,-1.1983642578125,37.127105712890625,27.447982788085938,-78.21786499023438,,,,,,,,,,
0,2018-10-30 16:40:06.3580,00:27,60,0,2018-10-30 16:40:07.0930,1540932007.093333,-0.2732973194894575,-0.2417905258971661,-0.0077284934834099496,0.0261077880859375,-0.1322021484375,-1.1740570068359375,36.98612976074219,27.243331909179688,-77.99900817871094,,,,,,,,,,
0,2018-10-30 16:40:06.3580,00:27,60,0,2018-10-30 16:40:07.1100,1540932007.1100101,-0.29807403869100974,-0.06651191559251096,0.03746987758908786,0.0316619873046875,-0.1481781005859375,-1.1930999755859375,36.81988525390625,27.509231567382812,-77.99813842773438,,,,,,,,,,
0,2018-10-30 16:40:06.3580,00:27,60,0,2018-10-30 16:40:07.1280,1540932007.127666,-0.20169663568602317,0.2273154464242584,0.16952511708564796,0.028228759765625,-0.162200927734375,-1.21954345703125,37.0479736328125,27.231124877929688,-77.99610900878906,,,,,,,,,,
0,2018-10-30 16:40:06.3580,00:27,60,0,2018-10-30 16:40:07.1440,1540932007.1442409,0.05697247256784713,0.5151943718302268,0.3175968736940536,0.0463104248046875,-0.14630126953125,-1.240509033203125,37.474456787109375,26.835769653320312,-78.14372253417969,,,,,,,,,,
0,2018-10-30 16:40:06.3580,00:27,60,0,2018-10-30 16:40:07.1610,1540932007.161148,0.388157859407921,0.6555011496482884,0.4097843253560185,0.069580078125,-0.094757080078125,-1.2219085693359375,37.474456787109375,26.835769653320312,-78.14372253417969,,,,,,,,,,
0,2018-10-30 16:40:06.3580,00:27,60,0,2018-10-30 16:40:07.1780,1540932007.1777449,0.6480051501280424,0.5966990854115568,0.4257121592035644,0.0515289306640625,-0.0633087158203125,-1.16558837890625,38.053009033203125,26.254989624023438,-78.28997802734375,,,,,,,,,,
0,2018-10-30 16:40:06.3580,00:27,60,0,2018-10-30 16:40:07.1930,1540932007.1932979,0.6983761789858011,0.45996280766696446,0.418035331045302,0.04718017578125,-0.0588836669921875,-1.068878173828125,38.43186950683594,25.791351318359375,-78.44276428222656,,,,,,,,,,
0,2018-10-30 16:40:06.3580,00:27,60,0,2018-10-30 16:40:07.2100,1540932007.210016,0.596097743637417,0.2286084111334919,0.365302344616752,0.0504913330078125,-0.0504302978515625,-0.99005126953125,38.58348083496094,24.905487060546875,-79.01390075683594,,,,,,,,,,
0,2018-10-30 16:40:06.3580,00:27,60,0,2018-10-30 16:40:07.2300,1540932007.2301679,0.43002168647953065,-0.0636868343081549,0.28787972435429543,0.055450439453125,-0.0478668212890625,-0.9388427734375,38.618408203125,24.35400390625,-79.34478759765625,,,,,,,,,,
0,2018-10-30 16:40:06.3580,00:27,60,0,2018-10-30 16:40:07.2470,1540932007.247356,0.20580030060972626,-0.24964045952628366,0.26414536640340025,0.0613555908203125,-0.085052490234375,-0.8516387939453125,38.53291320800781,23.827255249023438,-79.29100036621094,,,,,,,,,,
0,2018-10-30 16:40:06.3580,00:27,60,0,2018-10-30 16:40:07.2620,1540932007.2616339,0.20580030060972626,-0.24964045952628366,0.26414536640340025,0.0613555908203125,-0.085052490234375,-0.8516387939453125,38.53291320800781,23.827255249023438,-79.29100036621094,,,,,,,,,,
0,2018-10-30 16:40:06.3580,00:27,60,0,2018-10-30 16:40:07.2780,1540932007.278224,0.14823127995770138,0.0296974419476916,0.3319680898844482,0.0707855224609375,-0.0746917724609375,-0.807281494140625,38.383636474609375,23.312530517578125,-79.47438049316406,,,,,,,,,,
0,2018-10-30 16:40:06.3580,00:27,60,0,2018-10-30 16:40:07.2950,1540932007.294983,0.10370375916379454,0.46882128040089505,0.44174838370747654,0.0872039794921875,-0.0611572265625,-0.8079986572265625,38.710113525390625,23.480545043945312,-79.68455505371094,,,,,,,,,,
0,2018-10-30 16:40:06.3580,00:27,60,0,2018-10-30 16:40:07.3120,1540932007.311596,0.1406695003585304,0.7125974592068243,0.5202130989044811,0.102325439453125,-0.0370330810546875,-0.903228759765625,39.324066162109375,23.048736572265625,-79.58918762207031,,,,,,,,,,
0,2018-10-30 16:40:06.3580,00:27,60,0,2018-10-30 16:40:07.3290,1540932007.328799,0.33265278860070757,0.26328117062966955,0.4414397233371363,0.1048583984375,0.027069091796875,-1.021697998046875,39.70292663574219,22.585098266601562,-79.74192810058594,,,,,,,,,,
0,2018-10-30 16:40:06.3580,00:27,60,0,2018-10-30 16:40:07.3470,1540932007.347198,0.33265278860070757,0.26328117062966955,0.4414397233371363,0.1048583984375,0.027069091796875,-1.021697998046875,39.876373291015625,21.92877197265625,-79.99111938476562,,,,,,,,,,
0,2018-10-30 16:40:06.3580,00:27,60,0,2018-10-30 16:40:07.3620,1540932007.362109,0.3541708638924388,-0.16040645351321664,0.3134793603326821,0.08685302734375,0.0205078125,-0.9711456298828125,39.70915222167969,21.184906005859375,-80.02790832519531,,,,,,,,,,
0,2018-10-30 16:40:06.3580,00:27,60,0,2018-10-30 16:40:07.3780,1540932007.3783631,0.04811799457555167,-0.32890066094089493,0.17734575594277466,0.0510711669921875,-0.0594329833984375,-0.753631591796875,39.70915222167969,21.184906005859375,-80.02790832519531,,,,,,,,,,
0,2018-10-30 16:40:06.3580,00:27,60,0,2018-10-30 16:40:07.3950,1540932007.394907,0.04811799457555167,-0.32890066094089493,0.17734575594277466,0.0510711669921875,-0.0594329833984375,-0.753631591796875,39.41792297363281,21.475082397460938,-80.18907165527344,,,,,,,,,,
0,2018-10-30 16:40:06.3580,00:27,60,0,2018-10-30 16:40:07.4120,1540932007.411646,-0.065101505479205,-0.1557437910767059,0.15402765007025884,0.0273590087890625,-0.0877838134765625,-0.7482757568359375,39.29423522949219,21.499496459960938,-80.19488525390625,,,,,,,,,,
0,2018-10-30 16:40:06.3580,00:27,60,0,2018-10-30 16:40:07.4280,1540932007.428313,0.18442656864907733,-0.008298409956686906,0.00958311886654113,0.0283355712890625,-0.0821075439453125,-0.8673248291015625,39.02764892578125,21.319107055664062,-80.21609497070312,,,,,,,,,,
0,2018-10-30 16:40:06.3580,00:27,60,0,2018-10-30 16:40:07.4450,1540932007.4448628,0.18442656864907733,-0.008298409956686906,0.00958311886654113,0.0283355712890625,-0.0821075439453125,-0.8673248291015625,39.07807922363281,20.687225341796875,-80.39300537109375,,,,,,,,,,
0,2018-10-30 16:40:06.3580,00:27,60,0,2018-10-30 16:40:07.4620,1540932007.46187,0.22069935532817456,0.028256671797958734,-0.022506374372259642,0.0765228271484375,-0.1686553955078125,-0.831695556640625,38.962249755859375,20.3212890625,-80.56906127929688,,,,,,,,,,
0,2018-10-30 16:40:06.3580,00:27,60,0,2018-10-30 16:40:07.4780,1540932007.478401,0.06118878920566058,0.0005414206496131091,-0.011793542571306898,0.0765228271484375,-0.1686553955078125,-0.831695556640625,38.962249755859375,20.3212890625,-80.56906127929688,,,,,,,,,,
0,2018-10-30 16:40:06.3580,00:27,60,0,2018-10-30 16:40:07.4950,1540932007.4948912,0.06118878920566058,0.0005414206496131091,-0.011793542571306898,0.089996337890625,-0.214599609375,-0.83905029296875,38.79158020019531,20.277481079101562,-80.50192260742188,,,,,,,,,,
0,2018-10-30 16:40:06.3580,00:27,60,0,2018-10-30 16:40:07.5120,1540932007.5118241,-0.17848798573430963,-0.023279490036709646,0.028927522076549694,0.0925750732421875,-0.23651123046875,-0.90484619140625,38.80513000488281,20.196929931640625,-80.58222961425781,,,,,,,,,,
0,2018-10-30 16:40:06.3580,00:27,60,0,2018-10-30 16:40:07.5280,1540932007.528249,-0.17848798573430963,-0.023279490036709646,0.028927522076549694,0.0925750732421875,-0.23651123046875,-0.90484619140625,38.64604187011719,20.072372436523438,-80.82969665527344,,,,,,,,,,
0,2018-10-30 16:40:06.3580,00:27,60,0,2018-10-30 16:40:07.5450,1540932007.544946,-0.22053157617949956,-0.008823585323650532,0.031097199416637248,0.0963592529296875,-0.219207763671875,-0.9536895751953125,38.65960693359375,19.9918212890625,-80.9100341796875,,,,,,,,,,
0,2018-10-30 16:40:06.3580,00:27,60,0,2018-10-30 16:40:07.5620,1540932007.561846,-0.2190505922973065,-0.29968791431159775,0.005037369201884879,0.1063385009765625,-0.2082977294921875,-1.1070404052734375,38.317626953125,19.9041748046875,-80.85382080078125,,,,,,,,,,
0,2018-10-30 16:40:06.3580,00:27,60,0,2018-10-30 16:40:07.5780,1540932007.5784159,-0.2190505922973065,-0.29968791431159775,0.005037369201884879,0.1063385009765625,-0.2082977294921875,-1.1070404052734375,38.317626953125,19.9041748046875,-80.85382080078125,,,,,,,,,,
0,2018-10-30 16:40:06.3580,00:27,60,0,2018-10-30 16:40:07.5940,1540932007.5941901,-0.16599722758962,-0.4184158967650743,-0.18466438893442141,-0.0107421875,-0.155975341796875,-1.107513427734375,37.708221435546875,20.33642578125,-80.40251159667969,,,,,,,,,,
0,2018-10-30 16:40:06.3580,00:27,60,0,2018-10-30 16:40:07.6110,1540932007.611464,-0.0774668287365519,-0.24228214543439472,-0.3547354540435356,-0.04638671875,-0.1293792724609375,-1.1160125732421875,37.16264343261719,20.365493774414062,-80.8214111328125,,,,,,,,,,
0,2018-10-30 16:40:06.3580,00:27,60,0,2018-10-30 16:40:07.6280,1540932007.628022,-0.0774668287365519,-0.24228214543439472,-0.3547354540435356,-0.04638671875,-0.1293792724609375,-1.1160125732421875,36.90959167480469,20.104522705078125,-80.92294311523438,,,,,,,,,,
0,2018-10-30 16:40:06.3580,00:27,60,0,2018-10-30 16:40:07.6440,1540932007.643589,0.14324184765543793,-0.37853932049888184,-0.6205303824261309,0.0056304931640625,-0.1484832763671875,-1.2073516845703125,36.39631652832031,19.973007202148438,-80.87771606445312,,,,,,,,,,
0,2018-10-30 16:40:06.3580,00:27,60,0,2018-10-30 16:40:07.6600,1540932007.660281,0.07880480086820771,-0.6168408390519351,-0.6497220900828165,0.01861572265625,-0.1888885498046875,-1.1857757568359375,35.75871276855469,19.8658447265625,-80.9163818359375,,,,,,,,,,
0,2018-10-30 16:40:06.3580,00:27,60,0,2018-10-30 16:40:07.6770,1540932007.6769938,0.07880480086820771,-0.6168408390519351,-0.6497220900828165,0.01861572265625,-0.1888885498046875,-1.1857757568359375,35.75871276855469,19.8658447265625,-80.9163818359375,,,,,,,,,,
0,2018-10-30 16:40:06.3580,00:27,60,0,2018-10-30 16:40:07.6940,1540932007.693594,-0.5392163511788506,-0.11361924053437757,-0.31591455483345054,-0.0150909423828125,-0.2483062744140625,-1.20281982421875,35.05859375,19.770843505859375,-81.03605651855469,,,,,,,,,,
0,2018-10-30 16:40:06.3580,00:27,60,0,2018-10-30 16:40:07.7100,1540932007.710417,-0.5873503247209427,0.29285530821889044,-0.14727627039079896,-0.035736083984375,-0.182586669921875,-1.30322265625,34.954833984375,20.02459716796875,-80.95420837402344,,,,,,,,,,
0,2018-10-30 16:40:06.3580,00:27,60,0,2018-10-30 16:40:07.7270,1540932007.726865,-0.3297155882344592,0.5340058765061105,-0.21236339480011754,-0.0340118408203125,-0.0337066650390625,-1.386810302734375,35.01274108886719,20.40313720703125,-80.3125,,,,,,,,,,
0,2018-10-30 16:40:06.3580,00:27,60,0,2018-10-30 16:40:07.7440,1540932007.743589,0.12826955600701245,0.42213446859515197,-0.3839495322533778,-0.011688232421875,0.049072265625,-1.427276611328125,35.30641174316406,20.422470092773438,-80.451904296875,,,,,,,,,,
0,2018-10-30 16:40:06.3580,00:27,60,0,2018-10-30 16:40:07.7600,1540932007.760351,0.467107003607211,0.21171012138472112,-0.508510636442455,0.0198974609375,0.050048828125,-1.3272857666015625,35.37103271484375,19.710113525390625,-80.63102722167969,,,,,,,,,,
0,2018-10-30 16:40:06.3580,00:27,60,0,2018-10-30 16:40:07.7770,1540932007.7769861,0.510261664859182,0.2122275735845235,-0.47104022622114905,0.0198516845703125,-0.029632568359375,-1.1491851806640625,35.37103271484375,19.710113525390625,-80.63102722167969,,,,,,,,,,
0,2018-10-30 16:40:06.3580,00:27,60,0,2018-10-30 16:40:07.7940,1540932007.79361,0.4261161607409294,0.2559183291639274,-0.37565937809607014,0.0127410888671875,-0.0802764892578125,-1.03338623046875,35.18896484375,19.046676635742188,-80.74371337890625,,,,,,,,,,
0,2018-10-30 16:40:06.3580,00:27,60,0,2018-10-30 16:40:07.8100,1540932007.8104382,0.3593421900971547,0.11053769683704688,-0.3747517727965712,-0.0088958740234375,-0.069580078125,-0.9902496337890625,35.29273986816406,18.792922973632812,-80.82557678222656,,,,,,,,,,
0,2018-10-30 16:40:06.3580,00:27,60,0,2018-10-30 16:40:07.8270,1540932007.826956,0.3021324298761815,-0.03692659272671169,-0.4166835104759778,-0.017059326171875,-0.0516510009765625,-0.9415130615234375,35.2747802734375,18.56378173828125,-80.67893981933594,,,,,,,,,,
0,2018-10-30 16:40:06.3580,00:27,60,0,2018-10-30 16:40:07.8450,1540932007.844658,0.27196280946721885,-0.11220829778885358,-0.45210754771566675,-0.0242919921875,-0.04913330078125,-0.902618408203125,34.91096496582031,18.246612548828125,-80.94473266601562,,,,,,,,,,
0,2018-10-30 16:40:06.3580,00:27,60,0,2018-10-30 16:40:07.8600,1540932007.860331,0.2564304550415497,-0.07328406792847346,-0.41136304725021744,-0.018768310546875,-0.0699615478515625,-0.8570556640625,34.71275329589844,17.663467407226562,-81.28947448730469,,,,,,,,,,
0,2018-10-30 16:40:06.3580,00:27,60,0,2018-10-30 16:40:07.8770,1540932007.8770409,0.23407854401251466,0.04643647466327565,-0.2730688202679287,-0.0097503662109375,-0.1142578125,-0.8217010498046875,34.84815979003906,17.249053955078125,-80.98529052734375,,,,,,,,,,
0,2018-10-30 16:40:06.3580,00:27,60,0,2018-10-30 16:40:07.8940,1540932007.89365,0.22382910224123567,0.11296916291228921,-0.1166384662622004,-0.0069427490234375,-0.1370391845703125,-0.809326171875,34.84815979003906,17.249053955078125,-80.98529052734375,,,,,,,,,,
0,2018-10-30 16:40:06.3580,00:27,60,0,2018-10-30 16:40:07.9100,1540932007.9103,0.19815649564898083,0.10086376417733404,-0.003135872183568303,-0.0047760009765625,-0.12493896484375,-0.80279541015625,34.7515869140625,17.11236572265625,-81.15174865722656,,,,,,,,,,
0,2018-10-30 16:40:06.3580,00:27,60,0,2018-10-30 16:40:07.9270,1540932007.927028,0.18063662410178555,0.041402034938589856,0.03213343539678708,-0.026092529296875,-0.108978271484375,-0.7898712158203125,34.552520751953125,17.229537963867188,-81.08016967773438,,,,,,,,,,
0,2018-10-30 16:40:06.3580,00:27,60,0,2018-10-30 16:40:07.9440,1540932007.943694,0.15621943164739407,-0.09023855037624491,0.011630557112594048,-0.0474395751953125,-0.100006103515625,-0.77337646484375,34.77360534667969,16.641510009765625,-81.32420349121094,,,,,,,,,,
0,2018-10-30 16:40:06.3580,00:27,60,0,2018-10-30 16:40:07.9600,1540932007.960411,0.10245420398032937,-0.09396324747682973,-0.00977832857444394,-0.06744384765625,-0.115814208984375,-0.7530670166015625,34.63069152832031,16.436660766601562,-81.33961486816406,,,,,,,,,,
0,2018-10-30 16:40:06.3580,00:27,60,0,2018-10-30 16:40:07.9770,1540932007.977113,0.0067622986399292016,0.048551823517125586,0.013979465194043937,-0.0680999755859375,-0.1441802978515625,-0.7417449951171875,34.614044189453125,16.2076416015625,-81.03680419921875,,,,,,,,,,
0,2018-10-30 16:40:06.3580,00:27,60,0,2018-10-30 16:40:07.9940,1540932007.993689,-0.043060119033273184,0.13654186698501658,0.03872981910080434,-0.0647735595703125,-0.1565704345703125,-0.7940216064453125,34.614044189453125,16.2076416015625,-81.03680419921875,,,,,,,,,,
0,2018-10-30 16:40:06.3580,00:27,60,0,2018-10-30 16:40:08.0100,1540932008.010392,0.017087906818384423,0.14243277931627185,0.04407691393746544,-0.0572662353515625,-0.1544189453125,-0.8805084228515625,34.46067810058594,16.392913818359375,-81.19435119628906,,,,,,,,,,
0,2018-10-30 16:40:06.3580,00:27,60,0,2018-10-30 16:40:08.0270,1540932008.0271158,0.13912167113297635,0.0028240160199200243,0.04173359849430472,-0.0477142333984375,-0.152374267578125,-0.9461212158203125,34.8543701171875,15.848861694335938,-81.27127075195312,,,,,,,,,,
0,2018-10-30 16:40:06.3580,00:27,60,0,2018-10-30 16:40:08.0440,1540932008.0441031,0.15792545264169883,-0.12605513756061157,0.03835750918041127,-0.042633056640625,-0.166534423828125,-0.9400177001953125,34.54779052734375,15.910171508789062,-80.97341918945312,,,,,,,,,,
0,2018-10-30 16:40:06.3580,00:27,60,0,2018-10-30 16:40:08.0620,1540932008.061547,0.0018407769454627694,-0.11931600842216607,0.08016700776578324,-0.034088134765625,-0.201995849609375,-0.9085693359375,34.48271179199219,15.922073364257812,-81.3668212890625,,,,,,,,,,
0,2018-10-30 16:40:06.3580,00:27,60,0,2018-10-30 16:40:08.0770,1540932008.077128,-0.150772468269855,-0.07485240349442111,0.1466520254312844,-0.031494140625,-0.2187347412109375,-0.9501495361328125,34.40098571777344,15.704940795898438,-81.45741271972656,,,,,,,,,,
0,2018-10-30 16:40:06.3580,00:27,60,0,2018-10-30 16:40:08.0940,1540932008.0937781,-0.14457902083876673,-0.07940108263627646,0.18733767003664295,-0.0468292236328125,-0.2064056396484375,-1.046722412109375,34.40098571777344,15.704940795898438,-81.45741271972656,,,,,,,,,,
0,2018-10-30 16:40:06.3580,00:27,60,0,2018-10-30 16:40:08.1100,1540932008.110434,-0.057466222633947815,-0.11921800409405114,0.19797619964318247,-0.0597076416015625,-0.182891845703125,-1.1080322265625,34.28056335449219,15.729690551757812,-81.07275390625,,,,,,,,,,
0,2018-10-30 16:40:06.3580,00:27,60,0,2018-10-30 16:40:08.1270,1540932008.127228,-0.030520625040635095,-0.16495992634503412,0.2118344910076278,-0.058319091796875,-0.17974853515625,-1.13189697265625,34.23097229003906,15.661209106445312,-81.31216430664062,,,,,,,,,,
0,2018-10-30 16:40:06.3580,00:27,60,0,2018-10-30 16:40:08.1440,1540932008.143773,-0.11160003179587949,-0.2615522464499901,0.21816003122878402,-0.0634307861328125,-0.1884307861328125,-1.1533355712890625,34.09635925292969,15.766433715820312,-80.92527770996094,,,,,,,,,,
0,2018-10-30 16:40:06.3580,00:27,60,0,2018-10-30 16:40:08.1610,1540932008.160555,-0.24344195208912423,-0.26143693157478964,0.23532570235099876,-0.083251953125,-0.1945953369140625,-1.161346435546875,33.846405029296875,15.815017700195312,-81.24929809570312,,,,,,,,,,
0,2018-10-30 16:40:06.3580,00:27,60,0,2018-10-30 16:40:08.1770,1540932008.17716,-0.294554937626579,-0.09755904758065471,0.2194772307039372,-0.1085052490234375,-0.1767425537109375,-1.1794891357421875,34.05000305175781,15.698287963867188,-80.77420043945312,,,,,,,,,,
0,2018-10-30 16:40:06.3580,00:27,60,0,2018-10-30 16:40:08.1940,1540932008.1939468,-0.18466438893442141,0.14264077219740706,0.20582586695619104,-0.0958404541015625,-0.15289306640625,-1.20782470703125,34.07643127441406,15.537109375,-81.01295471191406,,,,,,,,,,
0,2018-10-30 16:40:06.3580,00:27,60,0,2018-10-30 16:40:08.2100,1540932008.210453,0.011330685173851126,0.24980930393939468,0.25409965645551236,-0.0465545654296875,-0.16204833984375,-1.223297119140625,34.07643127441406,15.537109375,-81.01295471191406,,,,,,,,,,
0,2018-10-30 16:40:06.3580,00:27,60,0,2018-10-30 16:40:08.2270,1540932008.227226,0.05868275461989601,0.2715116699785594,0.3933270550837648,0.0071563720703125,-0.1690673828125,-1.1699981689453125,34.2193603515625,15.741958618164062,-80.99755859375,,,,,,,,,,
0,2018-10-30 16:40:06.3580,00:27,60,0,2018-10-30 16:40:08.2440,1540932008.243943,-0.28678223566907374,0.020002470315367143,0.5548001046135582,0.0089263916015625,-0.1516265869140625,-1.0929718017578125,34.57814025878906,15.749359130859375,-80.74357604980469,,,,,,,,,,
0,2018-10-30 16:40:06.3580,00:27,60,0,2018-10-30 16:40:08.2610,1540932008.260593,-0.28678223566907374,0.020002470315367143,0.5548001046135582,0.0089263916015625,-0.1516265869140625,-1.0929718017578125,34.67341613769531,15.885940551757812,-80.73330688476562,,,,,,,,,,
0,2018-10-30 16:40:06.3580,00:27,60,0,2018-10-30 16:40:08.2780,1540932008.2783608,-0.5326897422953933,0.09290730410461331,0.4949809791565254,-0.015625,-0.0835418701171875,-1.073577880859375,34.76805114746094,16.022430419921875,-80.8011474609375,,,,,,,,,,
0,2018-10-30 16:40:06.3580,00:27,60,0,2018-10-30 16:40:08.2950,1540932008.295294,-0.2505086500416495,0.2982085283260587,0.13964018859721478,-0.003662109375,0.0429534912109375,-1.2178192138671875,35.147369384765625,16.259246826171875,-80.38137817382812,,,,,,,,,,
0,2018-10-30 16:40:06.3580,00:27,60,0,2018-10-30 16:40:08.3120,1540932008.311542,-0.2505086500416495,0.2982085283260587,0.13964018859721478,-0.003662109375,0.0429534912109375,-1.2178192138671875,35.147369384765625,16.259246826171875,-80.38137817382812,,,,,,,,,,
0,2018-10-30 16:40:06.3580,00:27,60,0,2018-10-30 16:40:08.3280,1540932008.328407,0.15564685201302703,0.27559083382023375,-0.04788629956071478,0.0516204833984375,0.056121826171875,-1.2204437255859375,35.35343933105469,16.452011108398438,-80.20689392089844,,,,,,,,,,
0,2018-10-30 16:40:06.3580,00:27,60,0,2018-10-30 16:40:08.3450,1540932008.3452601,0.7719896799411173,0.08095450450011968,-0.18855766413200825,0.150482177734375,-0.0400238037109375,-1.00604248046875,35.32652282714844,15.912734985351562,-80.54067993164062,,,,,,,,,,
0,2018-10-30 16:40:06.3580,00:27,60,0,2018-10-30 16:40:08.3630,1540932008.363381,0.7719896799411173,0.08095450450011968,-0.18855766413200825,0.150482177734375,-0.0400238037109375,-1.00604248046875,35.36341857910156,15.361434936523438,-80.63723754882812,,,,,,,,,,
0,2018-10-30 16:40:06.3580,00:27,60,0,2018-10-30 16:40:08.3780,1540932008.3780951,0.32945593002817647,0.06045135989981763,0.050325755119227364,0.2025909423828125,-0.144989013671875,-0.7301177978515625,35.38609313964844,14.890609741210938,-80.73159790039062,,,,,,,,,,
0,2018-10-30 16:40:06.3580,00:27,60,0,2018-10-30 16:40:08.3940,1540932008.394028,0.0024591629505791687,0.2882048963233941,0.14063780874155846,0.146392822265625,-0.137298583984375,-0.7031707763671875,35.60847473144531,14.302688598632812,-80.8194580078125,,,,,,,,,,
0,2018-10-30 16:40:06.3580,00:27,60,0,2018-10-30 16:40:08.4110,1540932008.410583,0.0024591629505791687,0.2882048963233941,0.14063780874155846,0.146392822265625,-0.137298583984375,-0.7031707763671875,35.60847473144531,14.302688598632812,-80.8194580078125,,,,,,,,,,
0,2018-10-30 16:40:06.3580,00:27,60,0,2018-10-30 16:40:08.4270,1540932008.4274092,-0.2831872345135758,0.1935332479966033,0.1577235850310708,0.0663299560546875,-0.0821685791015625,-1.0162811279296875,35.753997802734375,14.507797241210938,-80.49166870117188,,,,,,,,,,
0,2018-10-30 16:40:06.3580,00:27,60,0,2018-10-30 16:40:08.4440,1540932008.44398,-0.45425591976703367,-0.5955754977476524,0.18035033428460204,0.0663299560546875,-0.0821685791015625,-1.0162811279296875,35.75840759277344,14.817474365234375,-80.55795288085938,,,,,,,,,,
0,2018-10-30 16:40:06.3580,00:27,60,0,2018-10-30 16:40:08.4610,1540932008.460634,-0.45425591976703367,-0.5955754977476524,0.18035033428460204,0.1507415771484375,-0.0980072021484375,-1.127044677734375,35.10447692871094,15.491012573242188,-80.33425903320312,,,,,,,,,,
0,2018-10-30 16:40:06.3580,00:27,60,0,2018-10-30 16:40:08.4770,1540932008.477293,-0.3042187502741496,-1.6910902479693397,0.05045944580594934,0.07421875,-0.11712646484375,-0.9459991455078125,33.96583557128906,15.171646118164062,-80.56422424316406,,,,,,,,,,
0,2018-10-30 16:40:06.3580,00:27,60,0,2018-10-30 16:40:08.4940,1540932008.4940681,-0.0361369654635032,-1.344149333804248,0.01227184630308513,-0.0198822021484375,-0.1285858154296875,-0.7754974365234375,32.84053039550781,15.472152709960938,-80.38006591796875,,,,,,,,,,
0,2018-10-30 16:40:06.3580,00:27,60,0,2018-10-30 16:40:08.5110,1540932008.5106978,0.15768816498857277,-0.8181329405683753,2.370213370170522e-05,-0.0721435546875,-0.15814208984375,-0.667083740234375,32.123779296875,15.148117065429688,-80.19694519042969,,,,,,,,,,
0,2018-10-30 16:40:06.3580,00:27,60,0,2018-10-30 16:40:08.5270,1540932008.527291,0.18373734255896482,-0.31094536255547167,-0.040049681737047614,-0.094573974609375,-0.1817169189453125,-0.62579345703125,32.123779296875,15.148117065429688,-80.19694519042969,,,,,,,,,,
0,2018-10-30 16:40:06.3580,00:27,60,0,2018-10-30 16:40:08.5440,1540932008.544039,0.18373734255896482,-0.31094536255547167,-0.040049681737047614,-0.094573974609375,-0.1817169189453125,-0.62579345703125,31.926681518554688,15.265518188476562,-79.89106750488281,,,,,,,,,,
0,2018-10-30 16:40:06.3580,00:27,60,0,2018-10-30 16:40:08.5610,1540932008.560719,0.02041685818098347,0.2995449025610605,-0.3037601539344379,-0.0562286376953125,-0.1621246337890625,-0.6844482421875,31.801071166992188,15.28973388671875,-80.13116455078125,,,,,,,,,,
0,2018-10-30 16:40:06.3580,00:27,60,0,2018-10-30 16:40:08.5780,1540932008.578373,-0.003925499446776797,0.395045859251302,-0.3250537247462755,0.0099945068359375,-0.21234130859375,-0.781036376953125,32.04969787597656,15.24102783203125,-79.96334838867188,,,,,,,,,,
0,2018-10-30 16:40:06.3580,00:27,60,0,2018-10-30 16:40:08.5940,1540932008.5939798,-0.003925499446776797,0.395045859251302,-0.3250537247462755,0.0099945068359375,-0.21234130859375,-0.781036376953125,32.23521423339844,15.20440673828125,-79.95462036132812,,,,,,,,,,
0,2018-10-30 16:40:06.3580,00:27,60,0,2018-10-30 16:40:08.6110,1540932008.61081,0.17033125594761495,0.350547899545495,-0.16452130371349807,0.095855712890625,-0.2746734619140625,-0.9420928955078125,32.50459289550781,14.684661865234375,-80.11543273925781,,,,,,,,,,
0,2018-10-30 16:40:06.3580,00:27,60,0,2018-10-30 16:40:08.6270,1540932008.627427,0.16593570856843914,0.35558686664403394,-0.06171130141153412,0.0804595947265625,-0.291229248046875,-0.9710845947265625,32.50459289550781,14.684661865234375,-80.11543273925781,,,,,,,,,,
0,2018-10-30 16:40:06.3580,00:27,60,0,2018-10-30 16:40:08.6440,1540932008.644113,0.010690727563905086,0.4446102166148757,-0.04228860126547723,0.04547119140625,-0.2819366455078125,-1.022491455078125,32.81378173828125,14.623611450195312,-80.10089111328125,,,,,,,,,,
0,2018-10-30 16:40:06.3580,00:27,60,0,2018-10-30 16:40:08.6610,1540932008.660754,-0.12675341839843035,0.4970992574875744,-0.12571798136660753,0.02801513671875,-0.228302001953125,-1.1326141357421875,33.24858093261719,14.538330078125,-79.84623718261719,,,,,,,,,,
0,2018-10-30 16:40:06.3580,00:27,60,0,2018-10-30 16:40:08.6780,1540932008.677547,-0.1460038120219591,0.5571495453272262,-0.21987510697079504,0.03912353515625,-0.18682861328125,-1.2742919921875,33.28770446777344,14.996932983398438,-79.74896240234375,,,,,,,,,,
0,2018-10-30 16:40:06.3580,00:27,60,0,2018-10-30 16:40:08.6940,1540932008.6941462,0.0008082693908390488,0.5742734048203266,-0.2562986285675908,0.063232421875,-0.168914794921875,-1.4194793701171875,33.91456604003906,14.484512329101562,-79.81201171875,,,,,,,,,,
0,2018-10-30 16:40:06.3580,00:27,60,0,2018-10-30 16:40:08.7110,1540932008.710803,0.3026165925623579,0.37673396359591715,-0.26839443992262163,0.0931243896484375,-0.145782470703125,-1.5234375,33.944915771484375,14.323715209960938,-79.58216857910156,,,,,,,,,,
0,2018-10-30 16:40:06.3580,00:27,60,0,2018-10-30 16:40:08.7270,1540932008.7274718,0.5561761599488022,-0.01182150576275273,-0.2721473665307613,0.1052398681640625,-0.128204345703125,-1.5220947265625,33.944915771484375,14.323715209960938,-79.58216857910156,,,,,,,,,,
0,2018-10-30 16:40:06.3580,00:27,60,0,2018-10-30 16:40:08.7440,1540932008.744268,0.5463775913500736,-0.15129790995292763,-0.26160843914899073,0.052764892578125,-0.1492462158203125,-1.38409423828125,33.87736511230469,14.026107788085938,-79.67497253417969,,,,,,,,,,
0,2018-10-30 16:40:06.3580,00:27,60,0,2018-10-30 16:40:08.7610,1540932008.760929,0.31489909150980333,0.13937946512649602,-0.1776669331702382,-0.01080322265625,-0.162628173828125,-1.2518463134765625,33.81553649902344,14.038314819335938,-79.67788696289062,,,,,,,,,,
0,2018-10-30 16:40:06.3580,00:27,60,0,2018-10-30 16:40:08.7780,1540932008.777532,0.10262997261227459,0.5576094732474828,-0.12034425491904566,-0.041839599609375,-0.1087493896484375,-1.1910858154296875,34.0584716796875,13.679794311523438,-79.59996032714844,,,,,,,,,,
0,2018-10-30 16:40:06.3580,00:27,60,0,2018-10-30 16:40:08.7950,1540932008.795232,0.12360289882886662,0.6494477844905383,-0.14593670036248912,-0.02703857421875,-0.0296173095703125,-1.229278564453125,34.67112731933594,13.247848510742188,-79.6607666015625,,,,,,,,,,
0,2018-10-30 16:40:06.3580,00:27,60,0,2018-10-30 16:40:08.8110,1540932008.810849,0.2669009391833052,0.5258976162512553,-0.15790308208854215,0.00146484375,0.0086517333984375,-1.2202301025390625,35.08668518066406,12.93328857421875,-79.41571044921875,,,,,,,,,,
0,2018-10-30 16:40:06.3580,00:27,60,0,2018-10-30 16:40:08.8280,1540932008.827501,0.30640733605797665,0.36955674445815356,-0.10563321937355695,0.03076171875,-0.014923095703125,-1.116943359375,35.34886169433594,12.804031372070312,-79.32820129394531,,,,,,,,,,
0,2018-10-30 16:40:06.3580,00:27,60,0,2018-10-30 16:40:08.8440,1540932008.8441272,0.1786171490471785,0.252643706287566,-0.0447075504835962,0.037078857421875,-0.0558929443359375,-0.9739990234375,35.34886169433594,12.804031372070312,-79.32820129394531,,,,,,,,,,
0,2018-10-30 16:40:06.3580,00:27,60,0,2018-10-30 16:40:08.8610,1540932008.8608742,-0.044951229723338454,0.2717140702214054,0.0506764934347908,0.040191650390625,-0.088043212890625,-0.8307647705078125,35.292083740234375,13.125991821289062,-79.31929016113281,,,,,,,,,,
0,2018-10-30 16:40:06.3580,00:27,60,0,2018-10-30 16:40:08.8780,1540932008.8776379,-0.2719297862697018,0.4780512641068917,0.11737909136135143,0.031005859375,-0.1073760986328125,-0.7110137939453125,35.60630798339844,13.374710083007812,-79.29293823242188,,,,,,,,,,
0,2018-10-30 16:40:06.3580,00:27,60,0,2018-10-30 16:40:08.8940,1540932008.894203,-0.39055576965342836,0.7634603739179205,0.16594849174167153,0.0214996337890625,-0.0972442626953125,-0.68402099609375,36.12724304199219,13.81622314453125,-79.01399230957031,,,,,,,,,,
0,2018-10-30 16:40:06.3580,00:27,60,0,2018-10-30 16:40:08.9110,1540932008.910914,-0.3134460708190561,0.8807313409390148,0.137161318254569,0.007568359375,-0.062652587890625,-0.743011474609375,36.99052429199219,13.335784912109375,-78.67268371582031,,,,,,,,,,
0,2018-10-30 16:40:06.3580,00:27,60,0,2018-10-30 16:40:08.9280,1540932008.927614,-0.1118658152726694,0.764587157375133,0.026670759368816545,0.0010528564453125,-0.028289794921875,-0.8118133544921875,37.57002258300781,13.7647705078125,-78.78129577636719,,,,,,,,,,
0,2018-10-30 16:40:06.3580,00:27,60,0,2018-10-30 16:40:08.9440,1540932008.944267,0.03635374677623565,0.47902251895644354,-0.05403181009218163,0.0309295654296875,-0.034698486328125,-0.84564208984375,37.57002258300781,13.7647705078125,-78.78129577636719,,,,,,,,,,
0,2018-10-30 16:40:06.3580,00:27,60,0,2018-10-30 16:40:08.9610,1540932008.960849,0.03431323274901694,0.2670380919794443,-0.052151085730367676,0.04632568359375,-0.0749359130859375,-0.8318939208984375,37.70855712890625,13.659912109375,-78.69960021972656,,,,,,,,,,
0,2018-10-30 16:40:06.3580,00:27,60,0,2018-10-30 16:40:08.9780,1540932008.9776711,-0.02783109865576407,0.16380864180579288,-0.05440518527701074,0.023223876953125,-0.112579345703125,-0.8115692138671875,37.71296691894531,13.969619750976562,-78.76589965820312,,,,,,,,,,
0,2018-10-30 16:40:06.3580,00:27,60,0,2018-10-30 16:40:08.9940,1540932008.994256,-0.02809262107480985,0.017948107850480018,-0.09313606964225112,-0.0043487548828125,-0.11651611328125,-0.8094329833984375,37.792236328125,13.877227783203125,-78.37474060058594,,,,,,,,,,
0,2018-10-30 16:40:06.3580,00:27,60,0,2018-10-30 16:40:09.0120,1540932009.011918,0.04172667427547051,0.027260915866378105,-0.15525137259115027,-0.0323638916015625,-0.1074371337890625,-0.7983551025390625,37.83613586425781,13.635879516601562,-78.2252197265625,,,,,,,,,,
0,2018-10-30 16:40:06.3580,00:27,60,0,2018-10-30 16:40:09.0290,1540932009.02882,0.12105638419453284,0.2784116540468457,-0.12925998561641294,-0.008148193359375,-0.15582275390625,-0.81658935546875,37.75309753417969,13.41864013671875,-78.47200012207031,,,,,,,,,,
0,2018-10-30 16:40:06.3580,00:27,60,0,2018-10-30 16:40:09.0450,1540932009.045436,0.12105638419453284,0.2784116540468457,-0.12925998561641294,-0.008148193359375,-0.15582275390625,-0.81658935546875,37.92698669433594,13.462753295898438,-78.14866638183594,,,,,,,,,,
0,2018-10-30 16:40:06.3580,00:27,60,0,2018-10-30 16:40:09.0610,1540932009.060976,0.08241631362246417,0.32621912403929415,-0.09064068770084688,0.012786865234375,-0.17706298828125,-0.8734893798828125,37.92698669433594,13.462753295898438,-78.14866638183594,,,,,,,,,,
0,2018-10-30 16:40:06.3580,00:27,60,0,2018-10-30 16:40:09.0780,1540932009.077649,0.1429387799233869,0.2649823979340121,-0.06931356105927432,0.049285888671875,-0.1719207763671875,-1.0030517578125,38.021636962890625,13.599258422851562,-78.21649169921875,,,,,,,,,,
0,2018-10-30 16:40:06.3580,00:27,60,0,2018-10-30 16:40:09.0940,1540932009.094376,0.1429387799233869,0.2649823979340121,-0.06931356105927432,0.049285888671875,-0.1719207763671875,-1.0030517578125,38.27027893066406,13.550537109375,-78.04867553710938,,,,,,,,,,
0,2018-10-30 16:40:06.3580,00:27,60,0,2018-10-30 16:40:09.1110,1540932009.110965,0.16667100734541004,0.2223704889121993,-0.019041335477957545,0.0778656005859375,-0.1816864013671875,-1.0466461181640625,38.3128662109375,13.309066772460938,-78.05534362792969,,,,,,,,,,
0,2018-10-30 16:40:06.3580,00:27,60,0,2018-10-30 16:40:09.1280,1540932009.127825,-0.13143232611759056,-0.03612151912918074,0.152049454012548,0.109466552734375,-0.2187347412109375,-1.0844268798828125,38.43717956542969,13.284698486328125,-77.97140502929688,,,,,,,,,,
0,2018-10-30 16:40:06.3580,00:27,60,0,2018-10-30 16:40:09.1450,1540932009.144577,-0.13143232611759056,-0.03612151912918074,0.152049454012548,0.1431884765625,-0.243377685546875,-1.1562957763671875,38.47193908691406,13.433609008789062,-77.80787658691406,,,,,,,,,,
0,2018-10-30 16:40:06.3580,00:27,60,0,2018-10-30 16:40:09.1610,1540932009.1610432,-0.2381132330639847,-0.1298101946976233,0.30509279974391357,0.1471405029296875,-0.194183349609375,-1.2478790283203125,38.47193908691406,13.433609008789062,-77.80787658691406,,,,,,,,,,
0,2018-10-30 16:40:06.3580,00:27,60,0,2018-10-30 16:40:09.1780,1540932009.17788,-0.2381132330639847,-0.1298101946976233,0.30509279974391357,0.1471405029296875,-0.194183349609375,-1.2478790283203125,38.35395812988281,13.767852783203125,-77.72378540039062,,,,,,,,,,
0,2018-10-30 16:40:06.3580,00:27,60,0,2018-10-30 16:40:09.1940,1540932009.194463,-0.12277039467210785,-0.19583528444286777,0.31033789551082464,0.149322509765625,-0.148956298828125,-1.287384033203125,38.20513916015625,13.953582763671875,-77.33467102050781,,,,,,,,,,
0,2018-10-30 16:40:06.3580,00:27,60,0,2018-10-30 16:40:09.2110,1540932009.210973,0.21327845695066877,-0.48292431626951865,0.15998221195156703,0.1278839111328125,-0.155792236328125,-1.3121337890625,38.080169677734375,13.977859497070312,-77.49667358398438,,,,,,,,,,
0,2018-10-30 16:40:06.3580,00:27,60,0,2018-10-30 16:40:09.2280,1540932009.2277179,0.21327845695066877,-0.48292431626951865,0.15998221195156703,0.1278839111328125,-0.155792236328125,-1.3121337890625,37.63722229003906,13.443817138671875,-77.5406494140625,,,,,,,,,,
0,2018-10-30 16:40:06.3580,00:27,60,0,2018-10-30 16:40:09.2440,1540932009.2444649,0.3281395295013503,-0.6167777221341002,0.08804170879303855,0.1279449462890625,-0.15289306640625,-1.25994873046875,37.310089111328125,13.2757568359375,-77.40859985351562,,,,,,,,,,
0,2018-10-30 16:40:06.3580,00:27,60,0,2018-10-30 16:40:09.2620,1540932009.2622452,0.06830422300613428,-0.5483869463925384,0.10853499969730729,0.135284423828125,-0.186920166015625,-1.0575408935546875,37.310089111328125,13.2757568359375,-77.40859985351562,,,,,,,,,,
0,2018-10-30 16:40:06.3580,00:27,60,0,2018-10-30 16:40:09.2790,1540932009.2789578,-0.2600832467927024,-0.3382299805555515,0.2748568666238079,0.14471435546875,-0.2154541015625,-1.0275421142578125,36.66529846191406,13.559036254882812,-77.19892883300781,,,,,,,,,,
0,2018-10-30 16:40:06.3580,00:27,60,0,2018-10-30 16:40:09.2960,1540932009.2959042,-0.4657916683448209,-0.32157137530488783,0.38950914734502723,0.14166259765625,-0.1834564208984375,-1.06671142578125,36.423004150390625,13.917617797851562,-77.19876098632812,,,,,,,,,,
0,2018-10-30 16:40:06.3580,00:27,60,0,2018-10-30 16:40:09.3130,1540932009.313439,-0.5537529496729391,-0.35980211801741135,0.423750741060721,0.1423492431640625,-0.1207733154296875,-1.0856170654296875,36.16340637207031,14.047164916992188,-76.97390747070312,,,,,,,,,,
0,2018-10-30 16:40:06.3580,00:27,60,0,2018-10-30 16:40:09.3280,1540932009.328124,-0.5537529496729391,-0.35980211801741135,0.423750741060721,0.1423492431640625,-0.1207733154296875,-1.0856170654296875,36.094390869140625,14.4498291015625,-76.72848510742188,,,,,,,,,,
0,2018-10-30 16:40:06.3580,00:27,60,0,2018-10-30 16:40:09.3450,1540932009.344588,-0.45682294074176105,-0.5317658917132448,0.18792569600533243,0.1013336181640625,-0.0266876220703125,-1.0532379150390625,35.74195861816406,14.752273559570312,-76.814453125,,,,,,,,,,
0,2018-10-30 16:40:06.3580,00:27,60,0,2018-10-30 16:40:09.3610,1540932009.3613958,-0.32623590195416163,-0.5853798518303931,0.028269721287300122,0.0962066650390625,-0.0343780517578125,-0.9839324951171875,35.74195861816406,14.752273559570312,-76.814453125,,,,,,,,,,
0,2018-10-30 16:40:06.3580,00:27,60,0,2018-10-30 16:40:09.3800,1540932009.379599,-0.20163591561316938,-0.47592606155700845,-0.05301075413024525,0.1098175048828125,-0.067413330078125,-0.8816680908203125,35.16535949707031,15.333221435546875,-76.43388366699219,,,,,,,,,,
0,2018-10-30 16:40:06.3580,00:27,60,0,2018-10-30 16:40:09.3950,1540932009.395366,-0.1231184698265812,-0.19244348247854284,0.004075701732257266,0.1279144287109375,-0.1087646484375,-0.7995452880859375,34.95146179199219,15.530853271484375,-76.43815612792969,,,,,,,,,,
0,2018-10-30 16:40:06.3580,00:27,60,0,2018-10-30 16:40:09.4110,1540932009.411459,-0.09678779612896778,0.15733396456359222,0.10730355400925465,0.1181488037109375,-0.128143310546875,-0.7635650634765625,34.8489990234375,15.78472900390625,-76.20011901855469,,,,,,,,,,
0,2018-10-30 16:40:06.3580,00:27,60,0,2018-10-30 16:40:09.4280,1540932009.428196,-0.08888140348474052,0.3269807881110568,0.1299990128189099,0.1014251708984375,-0.1102142333984375,-0.775421142578125,35.074493408203125,15.506378173828125,-76.51043701171875,,,,,,,,,,
0,2018-10-30 16:40:06.3580,00:27,60,0,2018-10-30 16:40:09.4450,1540932009.4447331,-0.04004621962763051,0.23274190346140386,0.047414653731661746,0.091644287109375,-0.071258544921875,-0.817413330078125,35.3740234375,15.526260375976562,-75.94699096679688,,,,,,,,,,
0,2018-10-30 16:40:06.3580,00:27,60,0,2018-10-30 16:40:09.4610,1540932009.4614758,0.06165351081587941,-0.07705616929646168,-0.08256624959183563,0.0846710205078125,-0.059661865234375,-0.8255615234375,35.31217956542969,15.538482666015625,-75.94990539550781,,,,,,,,,,
0,2018-10-30 16:40:06.3580,00:27,60,0,2018-10-30 16:40:09.4780,1540932009.478059,0.14441257327063678,-0.3621552871566054,-0.12255973862988258,0.09381103515625,-0.1022491455078125,-0.7860565185546875,35.31217956542969,15.538482666015625,-75.94990539550781,,,,,,,,,,
0,2018-10-30 16:40:06.3580,00:27,60,0,2018-10-30 16:40:09.4950,1540932009.494694,0.13345260012052468,-0.5071271242561588,-0.08739749012534838,0.0819244384765625,-0.15643310546875,-0.72515869140625,34.838043212890625,15.865554809570312,-75.80740356445312,,,,,,,,,,
0,2018-10-30 16:40:06.3580,00:27,60,0,2018-10-30 16:40:09.5110,1540932009.5114,0.005056277645624442,-0.5881527351573835,-0.07354532403141023,0.0411224365234375,-0.182403564453125,-0.6887969970703125,34.49412536621094,15.7777099609375,-75.98550415039062,,,,,,,,,,
0,2018-10-30 16:40:06.3580,00:27,60,0,2018-10-30 16:40:09.5280,1540932009.5280008,-0.27276069252980656,-0.6427643154188755,-0.08532528448115773,0.0108184814453125,-0.20220947265625,-0.676239013671875,34.11152648925781,15.93170166015625,-75.68832397460938,,,,,,,,,,
0,2018-10-30 16:40:06.3580,00:27,60,0,2018-10-30 16:40:09.5450,1540932009.544651,-0.5757799550489844,-0.4784475424770955,-0.1471596239350535,-0.0017242431640625,-0.2069549560546875,-0.6883392333984375,33.7442626953125,16.314605712890625,-75.85018920898438,,,,,,,,,,
0,2018-10-30 16:40:06.3580,00:27,60,0,2018-10-30 16:40:09.5610,1540932009.5613642,-0.7050450006714685,-0.12743998132745277,-0.24842738964975256,0.000885009765625,-0.1993560791015625,-0.77691650390625,33.704925537109375,16.556411743164062,-75.45303344726562,,,,,,,,,,
0,2018-10-30 16:40:06.3580,00:27,60,0,2018-10-30 16:40:09.5780,1540932009.577898,-0.5812831111255242,0.2285516858022732,-0.3101280384169264,0.0366363525390625,-0.1902618408203125,-0.929962158203125,33.704925537109375,16.556411743164062,-75.45303344726562,,,,,,,,,,
0,2018-10-30 16:40:06.3580,00:27,60,0,2018-10-30 16:40:09.5960,1540932009.595619,-0.24781140048961725,0.4890365372873595,-0.25313133108315955,0.0797882080078125,-0.2092437744140625,-1.109649658203125,33.54435729980469,17.132125854492188,-75.36225891113281,,,,,,,,,,
0,2018-10-30 16:40:06.3580,00:27,60,0,2018-10-30 16:40:09.6120,1540932009.612284,0.18742635330094257,0.4866151912242595,-0.15150723441460787,0.1244964599609375,-0.2031707763671875,-1.247894287109375,33.888946533203125,17.220046997070312,-75.10606384277344,,,,,,,,,,
0,2018-10-30 16:40:06.3580,00:27,60,0,2018-10-30 16:40:09.6280,1540932009.627953,0.5428441092157564,0.279766936725587,-0.12828899708297004,0.1273193359375,-0.176177978515625,-1.310577392578125,34.05259704589844,16.953887939453125,-75.41932678222656,,,,,,,,,,
0,2018-10-30 16:40:06.3580,00:27,60,0,2018-10-30 16:40:09.6450,1540932009.644672,0.65669797424217,0.1449444065403256,-0.22593113528963524,0.071807861328125,-0.148712158203125,-1.2667999267578125,34.16679382324219,16.30999755859375,-75.3590087890625,,,,,,,,,,
0,2018-10-30 16:40:06.3580,00:27,60,0,2018-10-30 16:40:09.6610,1540932009.661344,0.5416781772905198,0.3463089460384159,-0.26634780062489577,0.0355377197265625,-0.1668701171875,-1.2175445556640625,34.29832458496094,15.895217895507812,-75.5234375,,,,,,,,,,
0,2018-10-30 16:40:06.3580,00:27,60,0,2018-10-30 16:40:09.6780,1540932009.677922,0.37489584981154445,0.6593704563960645,-0.2552128577911655,0.012451171875,-0.18328857421875,-1.2669830322265625,34.29832458496094,15.895217895507812,-75.5234375,,,,,,,,,,
0,2018-10-30 16:40:06.3580,00:27,60,0,2018-10-30 16:40:09.6950,1540932009.6947389,0.3572180528117075,0.6812408679000133,-0.2723154119955453,0.0239105224609375,-0.1462860107421875,-1.40924072265625,34.738189697265625,16.119674682617188,-75.2569580078125,,,,,,,,,,
0,2018-10-30 16:40:06.3580,00:27,60,0,2018-10-30 16:40:09.7110,1540932009.711433,0.4200353650239515,0.27980209045197607,-0.38312448494767126,0.0310821533203125,-0.0931549072265625,-1.5115966796875,35.087982177734375,15.816970825195312,-75.48338317871094,,,,,,,,,,
0,2018-10-30 16:40:06.3580,00:27,60,0,2018-10-30 16:40:09.7280,1540932009.728034,0.31708235097145027,-0.12153415529409306,-0.39216165579074613,0.072021484375,-0.0963897705078125,-1.46173095703125,34.93281555175781,15.692794799804688,-75.26226806640625,,,,,,,,,,
0,2018-10-30 16:40:06.3580,00:27,60,0,2018-10-30 16:40:09.7450,1540932009.744625,-0.013559751006247449,-0.1439401284932567,-0.21648836501254126,0.0939178466796875,-0.162109375,-1.333038330078125,34.88322448730469,15.62432861328125,-75.501708984375,,,,,,,,,,
0,2018-10-30 16:40:06.3580,00:27,60,0,2018-10-30 16:40:09.7620,1540932009.762054,-0.40235543749524244,0.1776197952189438,0.0956226631520581,0.11541748046875,-0.1796417236328125,-1.260162353515625,35.16401672363281,15.724258422851562,-75.48269653320312,,,,,,,,,,
0,2018-10-30 16:40:06.3580,00:27,60,0,2018-10-30 16:40:09.7790,1540932009.7794151,-0.5009738905575307,0.3705487719642081,0.23188383295818035,0.0858917236328125,-0.06402587890625,-1.321624755859375,35.36224365234375,16.307403564453125,-75.13796997070312,,,,,,,,,,
0,2018-10-30 16:40:06.3580,00:27,60,0,2018-10-30 16:40:09.7950,1540932009.794847,-0.26462952908957665,0.36964888983187033,0.16007808575080987,0.0454254150390625,0.075286865234375,-1.3490753173828125,35.36224365234375,16.307403564453125,-75.13796997070312,,,,,,,,,,
0,2018-10-30 16:40:06.3580,00:27,60,0,2018-10-30 16:40:09.8120,1540932009.811535,0.13143365769813561,0.2769519754533733,-0.05965827052719204,0.029510498046875,0.1611480712890625,-1.2766571044921875,35.4774169921875,16.673294067382812,-75.04002380371094,,,,,,,,,,
0,2018-10-30 16:40:06.3580,00:27,60,0,2018-10-30 16:40:09.8290,1540932009.8291678,0.3857330512354039,0.2568006344330707,-0.22894050732142476,0.0560455322265625,0.133819580078125,-1.119781494140625,35.73388671875,16.23419189453125,-75.04241943359375,,,,,,,,,,
0,2018-10-30 16:40:06.3580,00:27,60,0,2018-10-30 16:40:09.8460,1540932009.845859,0.41146984000992964,0.3974070178737662,-0.2898123803573659,0.0897216796875,0.0398712158203125,-0.952606201171875,35.93165588378906,16.11688232421875,-75.27018737792969,,,,,,,,,,
0,2018-10-30 16:40:06.3580,00:27,60,0,2018-10-30 16:40:09.8610,1540932009.86133,0.33686697470964894,0.43578663129122513,-0.2415582982501112,0.133270263671875,-0.04144287109375,-0.8730621337890625,36.358154296875,15.721527099609375,-75.4178466796875,,,,,,,,,,
0,2018-10-30 16:40:06.3580,00:27,60,0,2018-10-30 16:40:09.8780,1540932009.878036,0.2862762350619587,0.23374564887625474,-0.1754019146631258,0.15777587890625,-0.0696563720703125,-0.841217041015625,36.572052001953125,15.523910522460938,-75.41355895996094,,,,,,,,,,
0,2018-10-30 16:40:06.3580,00:27,60,0,2018-10-30 16:40:09.8950,1540932009.894736,0.2347762922181154,-0.06345966666717115,-0.11150442431274564,0.154937744140625,-0.076446533203125,-0.78240966796875,36.572052001953125,15.523910522460938,-75.41355895996094,,,,,,,,,,
0,2018-10-30 16:40:06.3580,00:27,60,0,2018-10-30 16:40:09.9120,1540932009.9115229,0.12956331966457296,-0.2454774061102718,-0.052806223358527166,0.119720458984375,-0.0943145751953125,-0.716064453125,36.126953125,15.6900634765625,-75.19740295410156,,,,,,,,,,
0,2018-10-30 16:40:06.3580,00:27,60,0,2018-10-30 16:40:09.9280,1540932009.927999,-0.0037539918725756944,-0.2896853475733691,-0.037836594871191766,0.0642242431640625,-0.0936431884765625,-0.6581878662109375,36.18812561035156,15.67779541015625,-75.2725830078125,,,,,,,,,,
0,2018-10-30 16:40:06.3580,00:27,60,0,2018-10-30 16:40:09.9450,1540932009.944902,-0.10111143815871142,-0.22159684061553125,-0.06128812511432053,-0.018310546875,-0.080413818359375,-0.6729278564453125,35.9761962890625,15.875595092773438,-75.04258728027344,,,,,,,,,,
0,2018-10-30 16:40:06.3580,00:27,60,0,2018-10-30 16:40:09.9610,1540932009.9614391,-0.10111143815871142,-0.22159684061553125,-0.06128812511432053,-0.018310546875,-0.080413818359375,-0.6729278564453125,35.85057067871094,15.899810791015625,-75.28269958496094,,,,,,,,,,
0,2018-10-30 16:40:06.3580,00:27,60,0,2018-10-30 16:40:09.9780,1540932009.978129,-0.01273097527501479,-0.2578555125408511,-0.1320310047306404,-0.046478271484375,-0.069000244140625,-0.705108642578125,35.70634460449219,15.694869995117188,-75.45429992675781,,,,,,,,,,
0,2018-10-30 16:40:06.3580,00:27,60,0,2018-10-30 16:40:09.9950,1540932009.9949079,0.13708808132459185,-0.05336362297468075,-0.23783013904010927,-0.0638275146484375,-0.110321044921875,-0.7130279541015625,35.70634460449219,15.694869995117188,-75.45429992675781,,,,,,,,,,
0,2018-10-30 16:40:06.3580,00:27,60,0,2018-10-30 16:40:10.0120,1540932010.011588,0.13708808132459185,-0.05336362297468075,-0.23783013904010927,-0.0638275146484375,-0.110321044921875,-0.7130279541015625,35.234161376953125,16.022125244140625,-75.07749938964844,,,,,,,,,,
0,2018-10-30 16:40:06.3580,00:27,60,0,2018-10-30 16:40:10.0280,1540932010.028109,0.14646187572945274,0.16271834365551444,-0.20008568954263423,-0.048614501953125,-0.155181884765625,-0.734649658203125,35.40483093261719,16.06591796875,-75.14463806152344,,,,,,,,,,
0,2018-10-30 16:40:06.3580,00:27,60,0,2018-10-30 16:40:10.0450,1540932010.044894,0.19108766716758352,0.45688392713072384,-0.02839568880686087,-0.008148193359375,-0.18048095703125,-0.852386474609375,35.64579772949219,15.707199096679688,-75.30099487304688,,,,,,,,,,
0,2018-10-30 16:40:06.3580,00:27,60,0,2018-10-30 16:40:10.0630,1540932010.062743,0.19108766716758352,0.45688392713072384,-0.02839568880686087,-0.008148193359375,-0.18048095703125,-0.852386474609375,36.18243408203125,15.367965698242188,-75.36251831054688,,,,,,,,,,
0,2018-10-30 16:40:06.3580,00:27,60,0,2018-10-30 16:40:10.0780,1540932010.078401,0.04104969872637237,0.2286158679845441,0.0730907224333337,0.0127410888671875,-0.2014007568359375,-0.9352264404296875,36.23448181152344,15.745956420898438,-75.42367553710938,,,,,,,,,,
0,2018-10-30 16:40:06.3580,00:27,60,0,2018-10-30 16:40:10.0950,1540932010.094974,-0.16822070078372714,0.08856954732109225,0.1639916009726813,0.0344390869140625,-0.2255096435546875,-0.9752960205078125,36.595855712890625,15.75360107421875,-74.8572998046875,,,,,,,,,,
0,2018-10-30 16:40:06.3580,00:27,60,0,2018-10-30 16:40:10.1120,1540932010.1115,-0.16822070078372714,0.08856954732109225,0.1639916009726813,0.0344390869140625,-0.2255096435546875,-0.9752960205078125,36.595855712890625,15.75360107421875,-74.8572998046875,,,,,,,,,,
0,2018-10-30 16:40:06.3580,00:27,60,0,2018-10-30 16:40:10.1280,1540932010.128107,-0.4859773641431855,0.09941127611880483,0.3793246867043462,0.0604248046875,-0.2230682373046875,-1.1346588134765625,36.494537353515625,16.316879272460938,-75.07601928710938,,,,,,,,,,
0,2018-10-30 16:40:06.3580,00:27,60,0,2018-10-30 16:40:10.1450,1540932010.14496,-0.4020403855382861,0.41074519387731906,0.49105814287083865,0.0706024169921875,-0.216583251953125,-1.247467041015625,36.62455749511719,16.602325439453125,-74.90220642089844,,,,,,,,,,
0,2018-10-30 16:40:06.3580,00:27,60,0,2018-10-30 16:40:10.1620,1540932010.1615849,-0.4020403855382861,0.41074519387731906,0.49105814287083865,0.0706024169921875,-0.216583251953125,-1.247467041015625,37.21697998046875,16.950714111328125,-75.16923522949219,,,,,,,,,,
0,2018-10-30 16:40:06.3580,00:27,60,0,2018-10-30 16:40:10.1780,1540932010.178197,0.32565799599761447,0.8740806287487599,0.5364306846786276,0.1390838623046875,-0.082794189453125,-1.4525909423828125,37.86503601074219,16.667739868164062,-74.9884033203125,,,,,,,,,,
0,2018-10-30 16:40:06.3580,00:27,60,0,2018-10-30 16:40:10.1950,1540932010.1950111,0.6199333017097352,0.6327558897262486,0.402204436261435,0.1799468994140625,-0.071868896484375,-1.4705047607421875,38.69158935546875,16.038192749023438,-75.04493713378906,,,,,,,,,,
0,2018-10-30 16:40:06.3580,00:27,60,0,2018-10-30 16:40:10.2120,1540932010.211575,0.573347956341524,0.27746063922157843,0.3750058383645647,0.22247314453125,-0.1089630126953125,-1.4013519287109375,38.69158935546875,16.038192749023438,-75.04493713378906,,,,,,,,,,
0,2018-10-30 16:40:06.3580,00:27,60,0,2018-10-30 16:40:10.2280,1540932010.2282228,0.15129045310187542,0.04117593256204213,0.429429932085315,0.2702484130859375,-0.12017822265625,-1.2687225341796875,38.64900207519531,16.279678344726562,-75.03825378417969,,,,,,,,,,
0,2018-10-30 16:40:06.3580,00:27,60,0,2018-10-30 16:40:10.2450,1540932010.2449641,-0.3953183006308171,0.02328028898503667,0.5366256280704215,0.2771759033203125,-0.13177490234375,-1.1890716552734375,38.823577880859375,16.323837280273438,-74.63681030273438,,,,,,,,,,
0,2018-10-30 16:40:06.3580,00:27,60,0,2018-10-30 16:40:10.2620,1540932010.261637,-0.6429672482939395,0.051388889026387,0.593475595228125,0.2561187744140625,-0.104888916015625,-1.225616455078125,39.11968994140625,16.652664184570312,-75.07682800292969,,,,,,,,,,
0,2018-10-30 16:40:06.3580,00:27,60,0,2018-10-30 16:40:10.2790,1540932010.279305,-0.4522106120498528,0.010082461570930987,0.4573792750934786,0.2103118896484375,-0.0152587890625,-1.282928466796875,39.491363525390625,16.579452514648438,-74.98127746582031,,,,,,,,,,
0,2018-10-30 16:40:06.3580,00:27,60,0,2018-10-30 16:40:10.2950,1540932010.294975,-0.03117789319766665,-0.11109163434378336,0.2665150471413527,0.1876068115234375,0.0430908203125,-1.2620086669921875,39.47846984863281,16.660079956054688,-74.8228759765625,,,,,,,,,,
0,2018-10-30 16:40:06.3580,00:27,60,0,2018-10-30 16:40:10.3120,1540932010.3116798,0.3357665565472282,-0.37451901251729824,0.07548836636273204,0.1850738525390625,0.0232696533203125,-1.156646728515625,39.47846984863281,16.660079956054688,-74.8228759765625,,,,,,,,,,
0,2018-10-30 16:40:06.3580,00:27,60,0,2018-10-30 16:40:10.3280,1540932010.3282661,0.4661677066907401,-0.662913259594197,-0.06625252370233724,0.1890106201171875,-0.040771484375,-0.98291015625,39.107452392578125,16.733352661132812,-74.84033203125,,,,,,,,,,
0,2018-10-30 16:40:06.3580,00:27,60,0,2018-10-30 16:40:10.3450,1540932010.3449779,0.3571791706597923,-0.8111506648224055,-0.06105483220282959,0.2173919677734375,-0.1403961181640625,-0.8146820068359375,38.73072814941406,16.496795654296875,-74.94767761230469,,,,,,,,,,
0,2018-10-30 16:40:06.3580,00:27,60,0,2018-10-30 16:40:10.3620,1540932010.361664,0.13440334862968295,-0.7183842419394574,-0.0041310954829309144,0.1954498291015625,-0.194976806640625,-0.6749267578125,38.17161560058594,16.606430053710938,-75.2862548828125,,,,,,,,,,
0,2018-10-30 16:40:06.3580,00:27,60,0,2018-10-30 16:40:10.3790,1540932010.378972,-0.08637030889290481,-0.4264581106248956,0.012345083233062309,0.1440887451171875,-0.185546875,-0.5968017578125,38.0267333984375,16.401412963867188,-75.53591918945312,,,,,,,,,,
0,2018-10-30 16:40:06.3580,00:27,60,0,2018-10-30 16:40:10.3970,1540932010.396999,-0.19855250770307561,-0.036963610665863796,-0.017131582660261723,0.1043548583984375,-0.14691162109375,-0.589508056640625,38.05708312988281,16.240615844726562,-75.30610656738281,,,,,,,,,,
0,2018-10-30 16:40:06.3580,00:27,60,0,2018-10-30 16:40:10.4190,1540932010.4186459,0.02431279653966039,0.23645488265319234,0.04633287769687156,0.1404876708984375,-0.133575439453125,-0.7502899169921875,38.20829772949219,16.755538940429688,-74.88839721679688,,,,,,,,,,
0,2018-10-30 16:40:06.3580,00:27,60,0,2018-10-30 16:40:10.4280,1540932010.4283981,0.02431279653966039,0.23645488265319234,0.04633287769687156,0.1404876708984375,-0.133575439453125,-0.7502899169921875,38.20829772949219,16.755538940429688,-74.88839721679688,,,,,,,,,,
0,2018-10-30 16:40:06.3580,00:27,60,0,2018-10-30 16:40:10.4450,1540932010.445267,0.2146174943467606,-0.027348267550132706,0.1027173242960292,0.153900146484375,-0.130279541015625,-0.80975341796875,38.074859619140625,17.170150756835938,-74.95828247070312,,,,,,,,,,
0,2018-10-30 16:40:06.3580,00:27,60,0,2018-10-30 16:40:10.4620,1540932010.46187,0.28459072040804756,-0.4186265528072996,0.13862712211854863,0.1352081298828125,-0.1400604248046875,-0.799774169921875,38.005340576171875,16.872329711914062,-75.28538513183594,,,,,,,,,,
0,2018-10-30 16:40:06.3580,00:27,60,0,2018-10-30 16:40:10.4780,1540932010.478455,0.14529913959752416,-0.6413198168436165,0.17265353241816403,0.0848388671875,-0.173248291015625,-0.725067138671875,37.886932373046875,16.506118774414062,-75.7738037109375,,,,,,,,,,
0,2018-10-30 16:40:06.3580,00:27,60,0,2018-10-30 16:40:10.4950,1540932010.495301,-0.11838230414398428,-0.6442740614408413,0.19198888088046634,0.03582763671875,-0.207855224609375,-0.681732177734375,37.48310852050781,16.430679321289062,-75.72053527832031,,,,,,,,,,
0,2018-10-30 16:40:06.3580,00:27,60,0,2018-10-30 16:40:10.5120,1540932010.511846,-0.32831423286885947,-0.5417207878679611,0.20501626598480693,0.002471923828125,-0.2220458984375,-0.7035675048828125,37.30900573730469,17.086944580078125,-75.5494384765625,,,,,,,,,,
0,2018-10-30 16:40:06.3580,00:27,60,0,2018-10-30 16:40:10.5280,1540932010.528497,-0.45648072454168587,-0.3836358118769665,0.19988781667364136,-0.0169525146484375,-0.201416015625,-0.757720947265625,37.30900573730469,17.086944580078125,-75.5494384765625,,,,,,,,,,
0,2018-10-30 16:40:06.3580,00:27,60,0,2018-10-30 16:40:10.5450,1540932010.5450768,-0.5115173453131544,-0.30824944458398446,0.14323838554602084,-0.0225067138671875,-0.185760498046875,-0.85931396484375,37.10212707519531,17.594528198242188,-75.30764770507812,,,,,,,,,,
0,2018-10-30 16:40:06.3580,00:27,60,0,2018-10-30 16:40:10.5620,1540932010.5617208,-0.4303212921021645,-0.22526933975875055,0.024455541974088637,-0.0115814208984375,-0.1672821044921875,-0.97247314453125,37.02020263671875,18.077789306640625,-74.90380859375,,,,,,,,,,
0,2018-10-30 16:40:06.3580,00:27,60,0,2018-10-30 16:40:10.5790,1540932010.578576,-0.17656252026618235,-0.17646238540919537,-0.07727721166693827,0.01385498046875,-0.14581298828125,-1.0747528076171875,37.05889892578125,17.8359375,-75.37904357910156,,,,,,,,,,
0,2018-10-30 16:40:06.3580,00:27,60,0,2018-10-30 16:40:10.5950,1540932010.5952048,0.12678084895765818,-0.11319446634050992,-0.12760270047005662,0.0320281982421875,-0.15777587890625,-1.12579345703125,36.97779846191406,17.618881225585938,-75.39154052734375,,,,,,,,,,
0,2018-10-30 16:40:06.3580,00:27,60,0,2018-10-30 16:40:10.6120,1540932010.611825,0.3146596733278052,-0.10293730140206973,-0.16832802617565734,0.0290679931640625,-0.1944122314453125,-1.13250732421875,36.94305419921875,17.469970703125,-75.55508422851562,,,,,,,,,,
0,2018-10-30 16:40:06.3580,00:27,60,0,2018-10-30 16:40:10.6290,1540932010.628573,0.07317727516876127,-0.021199294909248753,-0.28382213211745067,0.013153076171875,-0.2152252197265625,-1.0716552734375,36.94305419921875,17.469970703125,-75.55508422851562,,,,,,,,,,
0,2018-10-30 16:40:06.3580,00:27,60,0,2018-10-30 16:40:10.6450,1540932010.6451159,-0.10129812575112597,0.12897289685090238,-0.3628386542923197,0.010467529296875,-0.1886749267578125,-1.1544952392578125,36.55914306640625,17.623870849609375,-75.41413879394531,,,,,,,,,,
0,2018-10-30 16:40:06.3580,00:27,60,0,2018-10-30 16:40:10.6620,1540932010.661844,-0.11457691326237006,0.25718865700389526,-0.4772595063148111,0.0182037353515625,-0.149078369140625,-1.2618255615234375,36.84368896484375,18.033401489257812,-75.53952026367188,,,,,,,,,,
0,2018-10-30 16:40:06.3580,00:27,60,0,2018-10-30 16:40:10.6800,1540932010.6796799,0.05426616826810861,0.24201263353207872,-0.6036805622091995,0.0530548095703125,-0.118072509765625,-1.352874755859375,36.79411315917969,17.964950561523438,-75.77894592285156,,,,,,,,,,
0,2018-10-30 16:40:06.3580,00:27,60,0,2018-10-30 16:40:10.6960,1540932010.696337,0.24576129908247424,0.06855855489023685,-0.6938930136067617,0.11676025390625,-0.1160736083984375,-1.3805389404296875,36.84368896484375,18.033401489257812,-75.53952026367188,,,,,,,,,,
0,2018-10-30 16:40:06.3580,00:27,60,0,2018-10-30 16:40:10.7120,1540932010.711862,0.29209284519880074,-0.14518169419345164,-0.639553874724785,0.1778564453125,-0.1520538330078125,-1.3434600830078125,36.92559814453125,17.550140380859375,-75.943359375,,,,,,,,,,
0,2018-10-30 16:40:06.3580,00:27,60,0,2018-10-30 16:40:10.7290,1540932010.728601,0.13122087112703829,-0.28693696532840735,-0.507974009482804,0.1607818603515625,-0.21484375,-1.25946044921875,36.391571044921875,17.889617919921875,-75.5694580078125,,,,,,,,,,
0,2018-10-30 16:40:06.3580,00:27,60,0,2018-10-30 16:40:10.7450,1540932010.7452478,-0.2043360946424007,-0.05401023848735199,-0.33840974392913187,0.126861572265625,-0.2173309326171875,-1.129486083984375,36.391571044921875,17.889617919921875,-75.5694580078125,,,,,,,,,,
0,2018-10-30 16:40:06.3580,00:27,60,0,2018-10-30 16:40:10.7620,1540932010.7618442,-0.45048674787624454,0.2497230175200761,-0.23838567444349978,0.100128173828125,-0.15313720703125,-1.1006317138671875,36.329742431640625,17.901840209960938,-75.57237243652344,,,,,,,,,,
0,2018-10-30 16:40:06.3580,00:27,60,0,2018-10-30 16:40:10.7790,1540932010.778692,-0.4278866302336141,0.41591971587534304,-0.19963508268619284,0.1073150634765625,-0.060089111328125,-1.1573486328125,36.43269348144531,18.348419189453125,-75.23793029785156,,,,,,,,,,
0,2018-10-30 16:40:06.3580,00:27,60,0,2018-10-30 16:40:10.7950,1540932010.7953792,-0.22056140358370846,0.49167280045042894,-0.16639483754036882,0.1181640625,-0.0023193359375,-1.19403076171875,36.972412109375,18.318756103515625,-75.52189636230469,,,,,,,,,,
0,2018-10-30 16:40:06.3580,00:27,60,0,2018-10-30 16:40:10.8120,1540932010.8118792,0.03960040646115125,0.3528800297120774,-0.1634160918611152,0.119720458984375,0.0302276611328125,-1.18402099609375,37.331695556640625,18.635482788085938,-75.80279541015625,,,,,,,,,,
0,2018-10-30 16:40:06.3580,00:27,60,0,2018-10-30 16:40:10.8290,1540932010.8285608,0.13217108700397853,-0.0016562198819202781,-0.1735134671341506,0.125274658203125,0.0218963623046875,-1.092987060546875,37.350433349609375,18.555450439453125,-75.25834655761719,,,,,,,,,,
0,2018-10-30 16:40:06.3580,00:27,60,0,2018-10-30 16:40:10.8460,1540932010.846122,0.032006136296681295,-0.22345492810807954,-0.1866132902201414,0.0999298095703125,-0.00567626953125,-0.92315673828125,37.350433349609375,18.555450439453125,-75.25834655761719,,,,,,,,,,
0,2018-10-30 16:40:06.3580,00:27,60,0,2018-10-30 16:40:10.8620,1540932010.8618932,-0.11163971289612167,-0.2522969627136377,-0.20267721159939034,0.0602874755859375,-0.0340728759765625,-0.77789306640625,37.086944580078125,18.684585571289062,-75.50204467773438,,,,,,,,,,
0,2018-10-30 16:40:06.3580,00:27,60,0,2018-10-30 16:40:10.8790,1540932010.878625,-0.2276004046608969,-0.03371189097487704,-0.21951344969476227,0.013275146484375,-0.0569915771484375,-0.695892333984375,36.889862060546875,18.801956176757812,-75.19618225097656,,,,,,,,,,
0,2018-10-30 16:40:06.3580,00:27,60,0,2018-10-30 16:40:10.8950,1540932010.895283,-0.21730062914501544,0.26480769456650294,-0.24270665331215335,-0.009124755859375,-0.0559539794921875,-0.6849365234375,37.2569580078125,18.728302001953125,-75.64729309082031,,,,,,,,,,
0,2018-10-30 16:40:06.3580,00:27,60,0,2018-10-30 16:40:10.9130,1540932010.912969,-0.10643509717777981,0.3913520548193621,-0.2372229383115712,0.0112152099609375,-0.0561981201171875,-0.7238311767578125,37.60023498535156,18.81610107421875,-75.54728698730469,,,,,,,,,,
0,2018-10-30 16:40:06.3580,00:27,60,0,2018-10-30 16:40:10.9290,1540932010.928668,-0.0002729740117331219,0.3472272039822752,-0.2769248112102545,0.0074615478515625,-0.0559539794921875,-0.7545318603515625,37.846282958984375,18.767135620117188,-75.69183349609375,,,,,,,,,,
0,2018-10-30 16:40:06.3580,00:27,60,0,2018-10-30 16:40:10.9450,1540932010.9453712,0.06566875879139188,0.1780131441119485,-0.31462957960748733,0.02056884765625,-0.0679473876953125,-0.7722625732421875,37.846282958984375,18.767135620117188,-75.69183349609375,,,,,,,,,,
0,2018-10-30 16:40:06.3580,00:27,60,0,2018-10-30 16:40:10.9620,1540932010.9619641,0.055468319184170375,-0.005762547966713456,-0.31485381777127197,0.0318450927734375,-0.0947418212890625,-0.7739105224609375,37.563995361328125,19.367446899414062,-75.37260437011719,,,,,,,,,,
0,2018-10-30 16:40:06.3580,00:27,60,0,2018-10-30 16:40:10.9790,1540932010.978549,-0.0223401931202387,-0.09262607429350095,-0.3149422347194626,0.010467529296875,-0.113189697265625,-0.7608489990234375,37.659942626953125,19.50408935546875,-75.28424072265625,,,,,,,,,,
0,2018-10-30 16:40:06.3580,00:27,60,0,2018-10-30 16:40:10.9950,1540932010.9953341,-0.13878930862893446,-0.028809277724150175,-0.30626858536518353,-0.0078582763671875,-0.1378173828125,-0.7639923095703125,37.49957275390625,19.379425048828125,-75.68791198730469,,,,,,,,,,
0,2018-10-30 16:40:06.3580,00:27,60,0,2018-10-30 16:40:11.0120,1540932011.012223,-0.1690662544298273,0.10997017720875099,-0.3167987243153568,-0.021148681640625,-0.1422119140625,-0.8145751953125,37.76304626464844,19.250274658203125,-75.44418334960938,,,,,,,,,,
0,2018-10-30 16:40:06.3580,00:27,60,0,2018-10-30 16:40:11.0290,1540932011.028695,-0.12336907328515766,0.15269740110576427,-0.29212719997686276,0.0094757080078125,-0.1458587646484375,-0.8921661376953125,37.884124755859375,19.2255859375,-75.75076293945312,,,,,,,,,,
0,2018-10-30 16:40:06.3580,00:27,60,0,2018-10-30 16:40:11.0450,1540932011.045354,-0.14785790477287228,0.1503793856929593,-0.19467574410424726,0.06719970703125,-0.173797607421875,-0.933563232421875,37.74165344238281,19.72119140625,-75.19367980957031,,,,,,,,,,
0,2018-10-30 16:40:06.3580,00:27,60,0,2018-10-30 16:40:11.0620,1540932011.0619578,-0.23286920256150967,0.21248723179080622,-0.10462627816539799,0.087005615234375,-0.1902008056640625,-0.945709228515625,37.74165344238281,19.72119140625,-75.19367980957031,,,,,,,,,,
0,2018-10-30 16:40:06.3580,00:27,60,0,2018-10-30 16:40:11.0790,1540932011.078672,-0.3813944955035558,0.2630585303625389,0.047534229664606305,0.1162567138671875,-0.2163238525390625,-0.99090576171875,38.08934020996094,20.118682861328125,-75.15995788574219,,,,,,,,,,
0,2018-10-30 16:40:06.3580,00:27,60,0,2018-10-30 16:40:11.0950,1540932011.095403,-0.4832220576793895,0.23849486404819303,0.2135120161782687,0.1368865966796875,-0.2193450927734375,-1.0731048583984375,38.417144775390625,20.286834716796875,-75.21389770507812,,,,,,,,,,
0,2018-10-30 16:40:06.3580,00:27,60,0,2018-10-30 16:40:11.1120,1540932011.1121469,-0.479674993423513,0.1872995868330548,0.2948335042766013,0.1182708740234375,-0.1781463623046875,-1.1835479736328125,38.87052917480469,20.43072509765625,-75.02778625488281,,,,,,,,,,
0,2018-10-30 16:40:06.3580,00:27,60,0,2018-10-30 16:40:11.1300,1540932011.129768,-0.38064907671444265,0.07163423963316937,0.31072991282328427,0.1072235107421875,-0.123565673828125,-1.27545166015625,39.33421325683594,20.4937744140625,-75.31242370605469,,,,,,,,,,
0,2018-10-30 16:40:06.3580,00:27,60,0,2018-10-30 16:40:11.1450,1540932011.145345,-0.2993321159899632,-0.01583781900270123,0.35129518254737124,0.112030029296875,-0.1021575927734375,-1.340362548828125,39.23875427246094,21.057601928710938,-74.82829284667969,,,,,,,,,,
0,2018-10-30 16:40:06.3580,00:27,60,0,2018-10-30 16:40:11.1620,1540932011.162126,-0.1395365916308107,-0.07241800794197968,0.32227365088434173,0.1153717041015625,-0.0290069580078125,-1.4088592529296875,39.23875427246094,21.057601928710938,-74.82829284667969,,,,,,,,,,
0,2018-10-30 16:40:06.3580,00:27,60,0,2018-10-30 16:40:11.1790,1540932011.1791492,0.12413499841466444,-0.2212551570476741,0.12391715183749596,0.1129913330078125,0.0466156005859375,-1.4573516845703125,39.13499450683594,21.311370849609375,-74.74641418457031,,,,,,,,,,
0,2018-10-30 16:40:06.3580,00:27,60,0,2018-10-30 16:40:11.1950,1540932011.195492,0.2954995608652301,-0.316267423677886,-0.05935866490455812,0.13763427734375,0.0480194091796875,-1.3952178955078125,38.93023681640625,21.118728637695312,-74.76473999023438,,,,,,,,,,
0,2018-10-30 16:40:06.3580,00:27,60,0,2018-10-30 16:40:11.2120,1540932011.212091,0.2907005445809073,-0.3799806232808327,-0.07335730485845063,0.17938232421875,-0.0303497314453125,-1.293121337890625,39.066986083984375,20.31329345703125,-75.41175842285156,,,,,,,,,,
0,2018-10-30 16:40:06.3580,00:27,60,0,2018-10-30 16:40:11.2290,1540932011.228898,0.1912453263041162,-0.39452840705149955,0.01660108097111794,0.2154388427734375,-0.0896453857421875,-1.1932220458984375,39.09538269042969,20.152313232421875,-75.41619873046875,,,,,,,,,,
0,2018-10-30 16:40:06.3580,00:27,60,0,2018-10-30 16:40:11.2450,1540932011.245471,0.07756536569688484,-0.3388835202870569,0.16875945827225017,0.2533416748046875,-0.10589599609375,-1.11248779296875,38.88017272949219,20.349807739257812,-75.57667541503906,,,,,,,,,,
0,2018-10-30 16:40:06.3580,00:27,60,0,2018-10-30 16:40:11.2620,1540932011.2621331,-0.0656562419342685,-0.2744864209161779,0.366982799264592,0.2763824462890625,-0.1163787841796875,-1.07073974609375,38.88017272949219,20.349807739257812,-75.57667541503906,,,,,,,,,,
0,2018-10-30 16:40:06.3580,00:27,60,0,2018-10-30 16:40:11.2790,1540932011.278722,-0.1338970817064589,-0.21696879927319157,0.4827232476072177,0.238250732421875,-0.0999603271484375,-1.04705810546875,38.51615905761719,20.733001708984375,-75.3480224609375,,,,,,,,,,
0,2018-10-30 16:40:06.3580,00:27,60,0,2018-10-30 16:40:11.2960,1540932011.2955952,-0.09029980308131673,-0.17845789201399173,0.4849019796950115,0.1814117431640625,-0.047027587890625,-1.01593017578125,38.76350402832031,20.684158325195312,-75.33639526367188,,,,,,,,,,
0,2018-10-30 16:40:06.3580,00:27,60,0,2018-10-30 16:40:11.3120,1540932011.3121119,0.01861602865187189,-0.05373673184340085,0.410069283592657,0.1186065673828125,-0.0135040283203125,-0.9641571044921875,39.19309997558594,20.598373413085938,-75.70651245117188,,,,,,,,,,
0,2018-10-30 16:40:06.3580,00:27,60,0,2018-10-30 16:40:11.3290,1540932011.328764,0.13140090081672762,0.03099200455357912,0.31912339763088704,0.0745697021484375,-0.0266265869140625,-0.912445068359375,39.37290954589844,20.251922607421875,-75.78770446777344,,,,,,,,,,
0,2018-10-30 16:40:06.3580,00:27,60,0,2018-10-30 16:40:11.3470,1540932011.3465428,0.1133446686259904,0.1274242686770213,0.32031755906367854,0.074066162109375,-0.071563720703125,-0.8321990966796875,39.72727966308594,19.949661254882812,-75.46743774414062,,,,,,,,,,
0,2018-10-30 16:40:06.3580,00:27,60,0,2018-10-30 16:40:11.3620,1540932011.3622,-0.0463778851192939,0.3146471564706818,0.40732676030209336,0.074737548828125,-0.11932373046875,-0.773040771484375,39.77278137207031,20.718124389648438,-75.20216369628906,,,,,,,,,,
0,2018-10-30 16:40:06.3580,00:27,60,0,2018-10-30 16:40:11.3790,1540932011.378824,-0.19354336800874558,0.483507814864355,0.4579009883510251,0.0600738525390625,-0.1138916015625,-0.780242919921875,39.77278137207031,20.718124389648438,-75.20216369628906,,,,,,,,,,
0,2018-10-30 16:40:06.3580,00:27,60,0,2018-10-30 16:40:11.3960,1540932011.395504,-0.231771980192397,0.5660642107601573,0.461224613391444,0.058013916015625,-0.0725250244140625,-0.832183837890625,40.53276062011719,20.800735473632812,-75.31387329101562,,,,,,,,,,
0,2018-10-30 16:40:06.3580,00:27,60,0,2018-10-30 16:40:11.4140,1540932011.413721,-0.1617428277482184,0.49307415581602865,0.4236375567143927,0.06524658203125,-0.0497283935546875,-0.894378662109375,40.86444091796875,20.969268798828125,-74.89926147460938,,,,,,,,,,
0,2018-10-30 16:40:06.3580,00:27,60,0,2018-10-30 16:40:11.4300,1540932011.429806,0.014385863576390028,0.25596546711522183,0.33013769926723674,0.0689697265625,-0.0374298095703125,-0.9434051513671875,41.71549987792969,20.1783447265625,-75.42881774902344,,,,,,,,,,
0,2018-10-30 16:40:06.3580,00:27,60,0,2018-10-30 16:40:11.4460,1540932011.445737,0.21804471635358358,-0.07875659765247728,0.23758166611040488,0.076995849609375,-0.055755615234375,-0.9626617431640625,41.61041259765625,20.431976318359375,-75.50314331054688,,,,,,,,,,
0,2018-10-30 16:40:06.3580,00:27,60,0,2018-10-30 16:40:11.4630,1540932011.462537,0.2960569604813837,-0.3086566419146576,0.19979913340934172,0.085723876953125,-0.095001220703125,-0.9061737060546875,41.33221435546875,20.332290649414062,-75.20974731445312,,,,,,,,,,
0,2018-10-30 16:40:06.3580,00:27,60,0,2018-10-30 16:40:11.4790,1540932011.4788241,0.23753266394634742,-0.37070829531350385,0.16975255104274073,0.0610504150390625,-0.1392974853515625,-0.827239990234375,41.33221435546875,20.332290649414062,-75.20974731445312,,,,,,,,,,
0,2018-10-30 16:40:06.3580,00:27,60,0,2018-10-30 16:40:11.4960,1540932011.495528,0.09840326964620984,-0.2579156999814869,0.1570748389895275,0.04449462890625,-0.168365478515625,-0.7915496826171875,41.25553894042969,20.424942016601562,-75.28854370117188,,,,,,,,,,
0,2018-10-30 16:40:06.3580,00:27,60,0,2018-10-30 16:40:11.5120,1540932011.5122972,0.006301838087454502,-0.07852756579873046,0.147680538244273,0.043853759765625,-0.17169189453125,-0.8339080810546875,41.23091125488281,20.89556884765625,-75.428466796875,,,,,,,,,,
0,2018-10-30 16:40:06.3580,00:27,60,0,2018-10-30 16:40:11.5290,1540932011.5289512,0.15439197050738168,-0.0631422178652337,0.0020266655895503005,0.04327392578125,-0.1371917724609375,-1.029876708984375,41.43780517578125,20.387985229492188,-75.67030334472656,,,,,,,,,,
0,2018-10-30 16:40:06.3580,00:27,60,0,2018-10-30 16:40:11.5460,1540932011.546417,0.15439197050738168,-0.0631422178652337,0.0020266655895503005,0.04327392578125,-0.1371917724609375,-1.029876708984375,41.70782470703125,19.868331909179688,-75.75302124023438,,,,,,,,,,
0,2018-10-30 16:40:06.3580,00:27,60,0,2018-10-30 16:40:11.5640,1540932011.564446,0.26382259127928265,-0.11986648381948543,-0.1404942643588032,0.0410614013671875,-0.1257171630859375,-1.08917236328125,41.51007080078125,19.985641479492188,-75.52522277832031,,,,,,,,,,
0,2018-10-30 16:40:06.3580,00:27,60,0,2018-10-30 16:40:11.5810,1540932011.580927,0.4063198190939344,-0.14964941323816858,-0.33760387138327386,0.07745361328125,-0.15606689453125,-1.1258697509765625,41.30841064453125,20.102584838867188,-75.76602172851562,,,,,,,,,,
0,2018-10-30 16:40:06.3580,00:27,60,0,2018-10-30 16:40:11.5970,1540932011.5970922,0.4063198190939344,-0.14964941323816858,-0.33760387138327386,0.07745361328125,-0.15606689453125,-1.1258697509765625,41.30841064453125,20.102584838867188,-75.76602172851562,,,,,,,,,,
0,2018-10-30 16:40:06.3580,00:27,60,0,2018-10-30 16:40:11.6120,1540932011.612414,0.38502651459820586,0.04742930111765718,-0.3427099501412828,0.0914306640625,-0.181365966796875,-1.1111602783203125,41.338104248046875,19.94171142578125,-75.61427307128906,,,,,,,,,,
0,2018-10-30 16:40:06.3580,00:27,60,0,2018-10-30 16:40:11.6290,1540932011.6291652,0.3486530604299036,0.6895946716073739,-0.17699634920775625,0.120086669921875,-0.18316650390625,-1.193359375,41.80900573730469,19.614334106445312,-76.14726257324219,,,,,,,,,,
0,2018-10-30 16:40:06.3580,00:27,60,0,2018-10-30 16:40:11.6460,1540932011.645804,0.3486530604299036,0.6895946716073739,-0.17699634920775625,0.120086669921875,-0.18316650390625,-1.193359375,42.285736083984375,19.287506103515625,-75.97738647460938,,,,,,,,,,
0,2018-10-30 16:40:06.3580,00:27,60,0,2018-10-30 16:40:11.6620,1540932011.662302,0.35530430525237655,0.04841919809483964,-0.24846573916944972,0.1525115966796875,-0.132476806640625,-1.290618896484375,42.277435302734375,18.9774169921875,-76.37968444824219,,,,,,,,,,
0,2018-10-30 16:40:06.3580,00:27,60,0,2018-10-30 16:40:11.6790,1540932011.679072,0.17496702045711587,-0.41351328351434746,-0.3357319354530572,0.1265106201171875,-0.13812255859375,-1.2436065673828125,41.89921569824219,19.441131591796875,-76.14881896972656,,,,,,,,,,
0,2018-10-30 16:40:06.3580,00:27,60,0,2018-10-30 16:40:11.6960,1540932011.695601,0.17496702045711587,-0.41351328351434746,-0.3357319354530572,0.1265106201171875,-0.13812255859375,-1.2436065673828125,41.89921569824219,19.441131591796875,-76.14881896972656,,,,,,,,,,
0,2018-10-30 16:40:06.3580,00:27,60,0,2018-10-30 16:40:11.7120,1540932011.712257,-0.14382721046303734,-0.12377547166750374,-0.3481481250872246,0.052947998046875,-0.1004180908203125,-1.1162567138671875,41.63768005371094,19.570480346679688,-76.15821838378906,,,,,,,,,,
0,2018-10-30 16:40:06.3580,00:27,60,0,2018-10-30 16:40:11.7290,1540932011.729002,-0.009694971632324459,-0.007957791653265772,-0.4208561512719139,0.0461883544921875,-0.032012939453125,-1.1430206298828125,41.188690185546875,19.736251831054688,-76.41064453125,,,,,,,,,,
0,2018-10-30 16:40:06.3580,00:27,60,0,2018-10-30 16:40:11.7460,1540932011.745775,-0.009694971632324459,-0.007957791653265772,-0.4208561512719139,0.0461883544921875,-0.032012939453125,-1.1430206298828125,41.64862060546875,19.489654541015625,-76.55093383789062,,,,,,,,,,
0,2018-10-30 16:40:06.3580,00:27,60,0,2018-10-30 16:40:11.7620,1540932011.762342,0.06490789366795623,0.3122471156963024,-0.3412353578457059,0.0634918212890625,-0.0695953369140625,-1.029937744140625,41.937255859375,19.199203491210938,-76.7021484375,,,,,,,,,,
0,2018-10-30 16:40:06.3580,00:27,60,0,2018-10-30 16:40:11.7790,1540932011.779124,-0.043773579889305414,0.3195186107366548,-0.2758776562696353,0.060028076171875,-0.070709228515625,-1.0071258544921875,41.73295593261719,19.707046508789062,-76.14796447753906,,,,,,,,,,
0,2018-10-30 16:40:06.3580,00:27,60,0,2018-10-30 16:40:11.7960,1540932011.7956471,-0.11220163988612838,0.22174038499828655,-0.27384007171961566,0.0433349609375,-0.054718017578125,-1.003387451171875,41.73295593261719,19.707046508789062,-76.14796447753906,,,,,,,,,,
0,2018-10-30 16:40:06.3580,00:27,60,0,2018-10-30 16:40:11.8130,1540932011.813425,-0.12476057495472406,0.11171241719388082,-0.317878103505166,0.0375213623046875,-0.026336669921875,-0.9692230224609375,41.647796630859375,20.189987182617188,-76.13461303710938,,,,,,,,,,
0,2018-10-30 16:40:06.3580,00:27,60,0,2018-10-30 16:40:11.8290,1540932011.829097,-0.038386005004075116,-0.03146924302092132,-0.4230199696576033,0.027099609375,-0.0109100341796875,-0.92803955078125,41.637359619140625,20.580093383789062,-76.27676391601562,,,,,,,,,,
0,2018-10-30 16:40:06.3580,00:27,60,0,2018-10-30 16:40:11.8460,1540932011.845645,0.050391268882043316,-0.1369418737807465,-0.4970609079678773,0.0349884033203125,-0.0290374755859375,-0.8533935546875,41.61045837402344,20.04083251953125,-76.61053466796875,,,,,,,,,,
0,2018-10-30 16:40:06.3580,00:27,60,0,2018-10-30 16:40:11.8620,1540932011.862294,0.027781297543379588,-0.06126495561283684,-0.4337812709903955,0.0767822265625,-0.081878662109375,-0.76824951171875,41.45709228515625,20.226089477539062,-76.76809692382812,,,,,,,,,,
0,2018-10-30 16:40:06.3580,00:27,60,0,2018-10-30 16:40:11.8790,1540932011.879152,0.027781297543379588,-0.06126495561283684,-0.4337812709903955,0.0767822265625,-0.081878662109375,-0.76824951171875,41.1820068359375,20.435989379882812,-76.69718933105469,,,,,,,,,,
0,2018-10-30 16:40:06.3580,00:27,60,0,2018-10-30 16:40:11.8960,1540932011.8956962,0.03471297322863783,0.05987505183992449,-0.17983927367141583,0.04412841796875,-0.109161376953125,-0.7758941650390625,41.1820068359375,20.435989379882812,-76.69718933105469,,,,,,,,,,
0,2018-10-30 16:40:06.3580,00:27,60,0,2018-10-30 16:40:11.9120,1540932011.9123058,0.15976596327105258,-0.11191108901120074,-0.25718333068171506,0.005767822265625,-0.07025146484375,-0.789703369140625,41.031890869140625,20.621597290039062,-76.46429443359375,,,,,,,,,,
0,2018-10-30 16:40:06.3580,00:27,60,0,2018-10-30 16:40:11.9290,1540932011.929061,0.21879785830985798,-0.23769591572116927,-0.3194626843537631,-0.00445556640625,-0.0809173583984375,-0.762420654296875,40.70133972167969,21.153579711914062,-76.22828674316406,,,,,,,,,,
0,2018-10-30 16:40:06.3580,00:27,60,0,2018-10-30 16:40:11.9460,1540932011.945873,0.14652579159561466,-0.18724818782401628,-0.31938305583716975,-0.0031585693359375,-0.1275177001953125,-0.7223052978515625,40.68536376953125,20.533493041992188,-76.95475769042969,,,,,,,,,,
0,2018-10-30 16:40:06.3580,00:27,60,0,2018-10-30 16:40:11.9620,1540932011.962477,-0.029430593206465662,-0.04739175054628707,-0.24956216259023534,0.0007781982421875,-0.18389892578125,-0.7335205078125,40.71180725097656,20.372299194335938,-77.19349670410156,,,,,,,,,,
0,2018-10-30 16:40:06.3580,00:27,60,0,2018-10-30 16:40:11.9790,1540932011.9790359,-0.12447481776975855,0.07312933826913985,-0.13695012958012573,0.0211639404296875,-0.21112060546875,-0.8177490234375,40.589447021484375,20.396865844726562,-77.04312133789062,,,,,,,,,,
0,2018-10-30 16:40:06.3580,00:27,60,0,2018-10-30 16:40:11.9960,1540932011.996056,-0.06244580124017798,0.08178434549578836,-0.015947008607394477,0.0557098388671875,-0.20550537109375,-0.913848876953125,40.18348693847656,21.021621704101562,-76.72969055175781,,,,,,,,,,
0,2018-10-30 16:40:06.3580,00:27,60,0,2018-10-30 16:40:12.0130,1540932012.012659,0.04129684007553172,0.035001127258584404,0.07392269395787446,0.066314697265625,-0.18829345703125,-0.97979736328125,40.18348693847656,21.021621704101562,-76.72969055175781,,,,,,,,,,
0,2018-10-30 16:40:06.3580,00:27,60,0,2018-10-30 16:40:12.0300,1540932012.030312,0.06608261402479018,-0.015063638073815194,0.0920596199296411,0.0666656494140625,-0.1493377685546875,-1.024139404296875,40.341278076171875,21.146041870117188,-76.638427734375,,,,,,,,,,
0,2018-10-30 16:40:06.3580,00:27,60,0,2018-10-30 16:40:12.0460,1540932012.045785,-0.0019803265865829217,-0.08880576970978228,0.033087646015362474,0.0488433837890625,-0.12701416015625,-1.0562744140625,40.45207214355469,20.811080932617188,-77.58158874511719,,,,,,,,,,
0,2018-10-30 16:40:06.3580,00:27,60,0,2018-10-30 16:40:12.0620,1540932012.062418,-0.157561132204576,-0.16809899432191053,-0.05049992585451855,0.041534423828125,-0.1209716796875,-1.074859619140625,40.39349365234375,20.8236083984375,-77.19400024414062,,,,,,,,,,
0,2018-10-30 16:40:06.3580,00:27,60,0,2018-10-30 16:40:12.0790,1540932012.0792289,-0.3905701507233148,-0.2963730777027761,-0.14162530887375985,0.0440521240234375,-0.123779296875,-1.097076416015625,40.068817138671875,20.965042114257812,-77.36253356933594,,,,,,,,,,
0,2018-10-30 16:40:06.3580,00:27,60,0,2018-10-30 16:40:12.0960,1540932012.09592,-0.6617262886963486,-0.3068653997654703,-0.11265970359362201,0.0955352783203125,-0.143157958984375,-1.1215667724609375,39.55909729003906,21.843536376953125,-76.96725463867188,,,,,,,,,,
0,2018-10-30 16:40:06.3580,00:27,60,0,2018-10-30 16:40:12.1130,1540932012.112581,-0.7588025051713719,-0.17343117545646716,0.021385982501663306,0.134307861328125,-0.115753173828125,-1.201171875,39.55909729003906,21.843536376953125,-76.96725463867188,,,,,,,,,,
0,2018-10-30 16:40:06.3580,00:27,60,0,2018-10-30 16:40:12.1290,1540932012.129293,-0.5524991334317297,-0.19623182912918058,0.08877248019615629,0.1225433349609375,-0.0712890625,-1.3411865234375,39.292327880859375,22.363525390625,-76.49406433105469,,,,,,,,,,
0,2018-10-30 16:40:06.3580,00:27,60,0,2018-10-30 16:40:12.1460,1540932012.145973,-0.203035939398224,-0.38641322257781013,0.0156351524437462,0.098419189453125,-0.0489501953125,-1.406707763671875,38.95851135253906,22.895187377929688,-76.64851379394531,,,,,,,,,,
0,2018-10-30 16:40:06.3580,00:27,60,0,2018-10-30 16:40:12.1620,1540932012.162493,0.05757487960642305,-0.48826422057123653,-0.024175111111303292,0.119354248046875,-0.04205322265625,-1.343597412109375,39.10160827636719,22.399642944335938,-77.12754821777344,,,,,,,,,,
0,2018-10-30 16:40:06.3580,00:27,60,0,2018-10-30 16:40:12.1790,1540932012.1792688,0.13273541083896634,-0.4437979524824015,0.035829902989817065,0.1392974853515625,-0.057159423828125,-1.2353515625,38.63533020019531,22.336334228515625,-77.1552734375,,,,,,,,,,
0,2018-10-30 16:40:06.3580,00:27,60,0,2018-10-30 16:40:12.1960,1540932012.195922,0.05298145935825438,-0.3690097311702513,0.18800372662527176,0.159423828125,-0.0968017578125,-1.167724609375,38.11924743652344,22.904937744140625,-76.92799377441406,,,,,,,,,,
0,2018-10-30 16:40:06.3580,00:27,60,0,2018-10-30 16:40:12.2130,1540932012.212647,-0.10503054601887202,-0.2960191435939046,0.4365717311805805,0.19708251953125,-0.107177734375,-1.1566619873046875,38.11924743652344,22.904937744140625,-76.92799377441406,,,,,,,,,,
0,2018-10-30 16:40:06.3580,00:27,60,0,2018-10-30 16:40:12.2290,1540932012.229229,-0.20339413456483968,-0.4091323835211671,0.5585341227779583,0.177703857421875,-0.0514984130859375,-1.1860198974609375,37.8526611328125,22.724533081054688,-76.94921875,,,,,,,,,,
0,2018-10-30 16:40:06.3580,00:27,60,0,2018-10-30 16:40:12.2470,1540932012.2471051,-0.1578069419731903,-0.6212483706560162,0.4790177252664814,0.11981201171875,0.0229644775390625,-1.1822509765625,37.53431701660156,23.17584228515625,-76.94972229003906,,,,,,,,,,
0,2018-10-30 16:40:06.3580,00:27,60,0,2018-10-30 16:40:12.2640,1540932012.263623,-0.0011105381745630423,-0.6978824289197004,0.33324827142044927,0.0873260498046875,0.0626373291015625,-1.1162261962890625,37.33610534667969,22.592697143554688,-77.29444885253906,,,,,,,,,,
0,2018-10-30 16:40:06.3580,00:27,60,0,2018-10-30 16:40:12.2790,1540932012.279299,0.15919737837832068,-0.6124082737336073,0.2123077347333349,0.073516845703125,0.0504150390625,-1.00732421875,36.931640625,22.517196655273438,-77.31925964355469,,,,,,,,,,
0,2018-10-30 16:40:06.3580,00:27,60,0,2018-10-30 16:40:12.2960,1540932012.295974,0.1825301316368319,-0.37900031368357456,0.21151917273456242,0.0689239501953125,-0.014068603515625,-0.9014892578125,36.755279541015625,22.16357421875,-77.34202575683594,,,,,,,,,,
0,2018-10-30 16:40:06.3580,00:27,60,0,2018-10-30 16:40:12.3130,1540932012.312711,0.04567427795929497,0.23698218854902803,0.4039962110428403,0.0493011474609375,-0.078155517578125,-0.8246612548828125,36.63861083984375,22.497955322265625,-77.10174560546875,,,,,,,,,,
0,2018-10-30 16:40:06.3580,00:27,60,0,2018-10-30 16:40:12.3290,1540932012.329342,0.04567427795929497,0.23698218854902803,0.4039962110428403,0.0493011474609375,-0.078155517578125,-0.8246612548828125,36.63861083984375,22.497955322265625,-77.10174560546875,,,,,,,,,,
0,2018-10-30 16:40:06.3580,00:27,60,0,2018-10-30 16:40:12.3460,1540932012.346064,0.04645032310094405,0.4145857384853224,0.34745943162933013,0.0350799560546875,-0.0236053466796875,-0.8375701904296875,36.966400146484375,22.666091918945312,-77.15571594238281,,,,,,,,,,
0,2018-10-30 16:40:06.3580,00:27,60,0,2018-10-30 16:40:12.3630,1540932012.362648,0.18364093612750396,0.15353070421085008,0.11472738186395953,0.069183349609375,-0.00762939453125,-0.8631744384765625,37.139190673828125,22.009689331054688,-77.48300170898438,,,,,,,,,,
0,2018-10-30 16:40:06.3580,00:27,60,0,2018-10-30 16:40:12.3790,1540932012.379335,0.18364093612750396,0.15353070421085008,0.11472738186395953,0.069183349609375,-0.00762939453125,-0.8631744384765625,37.70794677734375,21.819091796875,-77.69332885742188,,,,,,,,,,
0,2018-10-30 16:40:06.3580,00:27,60,0,2018-10-30 16:40:12.3960,1540932012.3959432,0.16761696216460617,0.014293984518782296,0.08029191002090796,0.090087890625,-0.0425872802734375,-0.8012847900390625,37.578582763671875,21.533721923828125,-77.7890625,,,,,,,,,,
0,2018-10-30 16:40:06.3580,00:27,60,0,2018-10-30 16:40:12.4130,1540932012.412765,0.019010709125421636,-0.08917861226239338,0.07591660266601678,0.0636444091796875,-0.098419189453125,-0.720123291015625,37.07145690917969,22.4124755859375,-77.08139038085938,,,,,,,,,,
0,2018-10-30 16:40:06.3580,00:27,60,0,2018-10-30 16:40:12.4310,1540932012.431046,0.019010709125421636,-0.08917861226239338,0.07591660266601678,0.0636444091796875,-0.098419189453125,-0.720123291015625,37.07145690917969,22.4124755859375,-77.08139038085938,,,,,,,,,,
0,2018-10-30 16:40:06.3580,00:27,60,0,2018-10-30 16:40:12.4470,1540932012.446713,0.00994104771704778,-0.07239617002104104,-0.04185530495612134,-0.0026702880859375,-0.0933074951171875,-0.7399749755859375,37.05024719238281,22.182998657226562,-77.32525634765625,,,,,,,,,,
0,2018-10-30 16:40:06.3580,00:27,60,0,2018-10-30 16:40:12.4630,1540932012.4627619,-0.032643164429428245,-0.04319727182941227,-0.20886346849553541,-0.0026702880859375,-0.0933074951171875,-0.7399749755859375,36.924652099609375,22.207244873046875,-77.56538391113281,,,,,,,,,,
0,2018-10-30 16:40:06.3580,00:27,60,0,2018-10-30 16:40:12.4790,1540932012.479285,-0.032643164429428245,-0.04319727182941227,-0.20886346849553541,-0.042877197265625,-0.0761871337890625,-0.73236083984375,37.05615234375,21.792449951171875,-77.72978210449219,,,,,,,,,,
0,2018-10-30 16:40:06.3580,00:27,60,0,2018-10-30 16:40:12.4960,1540932012.495984,-0.4983224473762478,-0.294891028556147,-0.5238951854276247,-0.0024871826171875,-0.1144256591796875,-0.75445556640625,36.45329284667969,21.834197998046875,-77.60488891601562,,,,,,,,,,
0,2018-10-30 16:40:06.3580,00:27,60,0,2018-10-30 16:40:12.5130,1540932012.5126739,-0.4983224473762478,-0.294891028556147,-0.5238951854276247,-0.0024871826171875,-0.1144256591796875,-0.75445556640625,35.95188903808594,23.022781372070312,-76.80732727050781,,,,,,,,,,
0,2018-10-30 16:40:06.3580,00:27,60,0,2018-10-30 16:40:12.5290,1540932012.529408,-0.6337929246547255,-0.25329271864521835,-0.5934172720002522,0.0159912109375,-0.1536102294921875,-0.8083953857421875,35.95188903808594,23.022781372070312,-76.80732727050781,,,,,,,,,,
0,2018-10-30 16:40:06.3580,00:27,60,0,2018-10-30 16:40:12.5460,1540932012.546025,-0.36377715226046364,0.20044335207703187,-0.5650801727373731,0.0952301025390625,-0.1892852783203125,-1.0218658447265625,35.338592529296875,23.454635620117188,-76.82461547851562,,,,,,,,,,
0,2018-10-30 16:40:06.3580,00:27,60,0,2018-10-30 16:40:12.5630,1540932012.5628371,-0.36377715226046364,0.20044335207703187,-0.5650801727373731,0.0952301025390625,-0.1892852783203125,-1.0218658447265625,35.299896240234375,23.696502685546875,-76.34938049316406,,,,,,,,,,
0,2018-10-30 16:40:06.3580,00:27,60,0,2018-10-30 16:40:12.5800,1540932012.579618,0.10315994166920037,0.6624884854003293,-0.38257614007922397,0.0753631591796875,-0.1996307373046875,-1.262603759765625,35.68464660644531,22.84228515625,-76.90664672851562,,,,,,,,,,
0,2018-10-30 16:40:06.3580,00:27,60,0,2018-10-30 16:40:12.5970,1540932012.5973148,0.24609099842542606,0.7259617341890598,-0.3696819130293873,0.0974273681640625,-0.181640625,-1.36065673828125,36.16773986816406,22.825347900390625,-76.56877136230469,,,,,,,,,,
0,2018-10-30 16:40:06.3580,00:27,60,0,2018-10-30 16:40:12.6130,1540932012.6133761,0.24609099842542606,0.7259617341890598,-0.3696819130293873,0.0974273681640625,-0.181640625,-1.36065673828125,36.4478759765625,22.925216674804688,-76.62786865234375,,,,,,,,,,
0,2018-10-30 16:40:06.3580,00:27,60,0,2018-10-30 16:40:12.6300,1540932012.629673,0.2996737995578203,0.5999121892667375,-0.35271651162114653,0.119720458984375,-0.1782379150390625,-1.51751708984375,36.29335021972656,22.801116943359375,-76.32865905761719,,,,,,,,,,
0,2018-10-30 16:40:06.3580,00:27,60,0,2018-10-30 16:40:12.6460,1540932012.646215,0.37019270732646453,0.259567126173445,-0.3424446992967109,0.1408233642578125,-0.1587677001953125,-1.5669097900390625,36.29335021972656,22.801116943359375,-76.32865905761719,,,,,,,,,,
0,2018-10-30 16:40:06.3580,00:27,60,0,2018-10-30 16:40:12.6630,1540932012.662786,0.37019270732646453,0.259567126173445,-0.3424446992967109,0.1408233642578125,-0.1587677001953125,-1.5669097900390625,36.34034729003906,22.869338989257812,-76.40162658691406,,,,,,,,,,
0,2018-10-30 16:40:06.3580,00:27,60,0,2018-10-30 16:40:12.6830,1540932012.683487,0.25912078037474773,0.04785380899541582,-0.14671141392359316,0.1032867431640625,-0.1747894287109375,-1.4058380126953125,36.335479736328125,21.85919189453125,-76.9078369140625,,,,,,,,,,
0,2018-10-30 16:40:06.3580,00:27,60,0,2018-10-30 16:40:12.6960,1540932012.696001,0.17594519952550197,0.20063643125606262,-0.015857792710876825,0.099395751953125,-0.12701416015625,-1.331268310546875,36.709075927734375,21.786178588867188,-76.5780029296875,,,,,,,,,,
0,2018-10-30 16:40:06.3580,00:27,60,0,2018-10-30 16:40:12.7120,1540932012.712297,0.2749897583622029,0.1910671608271899,-0.02446033566405078,0.058197021484375,-0.030792236328125,-1.3113861083984375,36.59846496582031,21.420730590820312,-76.1292724609375,,,,,,,,,,
0,2018-10-30 16:40:06.3580,00:27,60,0,2018-10-30 16:40:12.7290,1540932012.7290049,0.4100463804072823,0.07325690368535465,-0.0995984963434374,0.0366668701171875,0.0300445556640625,-1.243499755859375,36.15580749511719,21.896392822265625,-76.21369934082031,,,,,,,,,,
0,2018-10-30 16:40:06.3580,00:27,60,0,2018-10-30 16:40:12.7450,1540932012.745479,0.46259587503672583,0.04375041038782172,-0.14997804731668438,0.041107177734375,0.0384979248046875,-1.1203155517578125,36.15580749511719,21.896392822265625,-76.21369934082031,,,,,,,,,,
0,2018-10-30 16:40:06.3580,00:27,60,0,2018-10-30 16:40:12.7620,1540932012.7622828,0.44651411047817335,0.13035640903719856,-0.13059183247756156,0.0415496826171875,0.017791748046875,-1.015869140625,35.93312072753906,21.474639892578125,-76.08540344238281,,,,,,,,,,
0,2018-10-30 16:40:06.3580,00:27,60,0,2018-10-30 16:40:12.7790,1540932012.779107,0.3878446716637277,0.1826140212111694,-0.0748284350446104,0.0463409423828125,-0.00958251953125,-0.9427642822265625,36.290771484375,20.781539916992188,-76.4820556640625,,,,,,,,,,
0,2018-10-30 16:40:06.3580,00:27,60,0,2018-10-30 16:40:12.7950,1540932012.795426,0.3336991445929997,0.1505740627686441,-0.047012516407059786,0.0523834228515625,-0.014923095703125,-0.8779296875,36.51509094238281,20.19378662109375,-76.33561706542969,,,,,,,,,,
0,2018-10-30 16:40:06.3580,00:27,60,0,2018-10-30 16:40:12.8120,1540932012.8123112,0.278757332356338,0.1434530363298812,-0.02773256169543114,0.0464324951171875,-0.0204620361328125,-0.810760498046875,36.62786865234375,19.859024047851562,-77.04444885253906,,,,,,,,,,
0,2018-10-30 16:40:06.3580,00:27,60,0,2018-10-30 16:40:12.8290,1540932012.828988,0.18021930675897013,0.21239029272712734,0.00985635919438326,0.03668212890625,-0.0390472412109375,-0.7552032470703125,36.69017028808594,20.547286987304688,-76.46903991699219,,,,,,,,,,
0,2018-10-30 16:40:06.3580,00:27,60,0,2018-10-30 16:40:12.8460,1540932012.846187,0.04893585134631501,0.28047027756947696,0.06994020286376997,0.044952392578125,-0.063018798828125,-0.7273101806640625,36.69017028808594,20.547286987304688,-76.46903991699219,,,,,,,,,,
0,2018-10-30 16:40:06.3580,00:27,60,0,2018-10-30 16:40:12.8630,1540932012.8630471,-0.06643921129475179,0.25419473130642817,0.15560450775169477,0.0593414306640625,-0.084503173828125,-0.7323760986328125,36.60844421386719,20.330154418945312,-76.55964660644531,,,,,,,,,,
0,2018-10-30 16:40:06.3580,00:27,60,0,2018-10-30 16:40:12.8800,1540932012.8795729,-0.1396380580683427,0.22432951021006156,0.22626216621313208,0.0474395751953125,-0.0848236083984375,-0.7458953857421875,36.86083984375,20.591064453125,-76.53617858886719,,,,,,,,,,
0,2018-10-30 16:40:06.3580,00:27,60,0,2018-10-30 16:40:12.8970,1540932012.897301,-0.1419089355298533,0.2059896513632309,0.21981491953015925,0.019927978515625,-0.0640716552734375,-0.761627197265625,37.54315185546875,19.756546020507812,-76.76434326171875,,,,,,,,,,
0,2018-10-30 16:40:06.3580,00:27,60,0,2018-10-30 16:40:12.9130,1540932012.9128141,-0.07404599831634512,0.12335016484141809,0.16615355514560765,0.00994873046875,-0.0511627197265625,-0.7805023193359375,37.71771240234375,19.80072021484375,-76.36289978027344,,,,,,,,,,
0,2018-10-30 16:40:06.3580,00:27,60,0,2018-10-30 16:40:12.9300,1540932012.929706,0.045343779668016136,-0.07884661249732196,0.1337495425820685,0.0248260498046875,-0.07952880859375,-0.8116455078125,37.40069580078125,20.252151489257812,-76.20719909667969,,,,,,,,,,
0,2018-10-30 16:40:06.3580,00:27,60,0,2018-10-30 16:40:12.9460,1540932012.9463391,0.14947657408342244,-0.32643164429428245,0.12806475891918537,0.017364501953125,-0.1343536376953125,-0.823822021484375,36.66192626953125,20.399002075195312,-75.85162353515625,,,,,,,,,,
0,2018-10-30 16:40:06.3580,00:27,60,0,2018-10-30 16:40:12.9630,1540932012.962964,0.15389023095801077,-0.41092522356700845,0.14937670554254448,-0.0076751708984375,-0.18072509765625,-0.780303955078125,36.66192626953125,20.399002075195312,-75.85162353515625,,,,,,,,,,
0,2018-10-30 16:40:06.3580,00:27,60,0,2018-10-30 16:40:12.9800,1540932012.979694,0.005675196282958856,-0.2484241938564445,0.16995921234333086,-0.0234832763671875,-0.2016754150390625,-0.718658447265625,36.40608215332031,20.838165283203125,-75.77113342285156,,,,,,,,,,
0,2018-10-30 16:40:06.3580,00:27,60,0,2018-10-30 16:40:12.9960,1540932012.996426,-0.21614188775472196,-0.06465755652548878,0.18844394715346185,-0.0165557861328125,-0.20159912109375,-0.73614501953125,36.881072998046875,19.810760498046875,-76.32997131347656,,,,,,,,,,
0,2018-10-30 16:40:06.3580,00:27,60,0,2018-10-30 16:40:13.0130,1540932013.0129461,-0.2972497903336302,-0.057363690931979766,0.18204730053120052,-0.0067596435546875,-0.188232421875,-0.8559112548828125,37.08842468261719,20.003646850585938,-75.999267578125,,,,,,,,,,
0,2018-10-30 16:40:06.3580,00:27,60,0,2018-10-30 16:40:13.0300,1540932013.029558,-0.18822476899574833,-0.03744830598425822,0.07924289086752574,-0.0180816650390625,-0.1330718994140625,-0.95526123046875,37.321563720703125,20.035308837890625,-75.98541259765625,,,,,,,,,,
0,2018-10-30 16:40:06.3580,00:27,60,0,2018-10-30 16:40:13.0460,1540932013.0464091,-0.010638529606539533,-0.027706995348966378,-0.07820452435850385,-0.011749267578125,-0.1108245849609375,-1.01837158203125,36.580657958984375,20.88232421875,-75.36968994140625,,,,,,,,,,
0,2018-10-30 16:40:06.3580,00:27,60,0,2018-10-30 16:40:13.0630,1540932013.063002,0.12163881752493318,0.010158361661998246,-0.12744930239126806,0.0416259765625,-0.15081787109375,-1.066192626953125,36.580657958984375,20.88232421875,-75.36968994140625,,,,,,,,,,
0,2018-10-30 16:40:06.3580,00:27,60,0,2018-10-30 16:40:13.0800,1540932013.0796142,0.17440882189263526,0.04163745837895286,-0.011770106753714201,0.09930419921875,-0.2225341796875,-1.12445068359375,36.790802001953125,20.375106811523438,-75.22105407714844,,,,,,,,,,
0,2018-10-30 16:40:06.3580,00:27,60,0,2018-10-30 16:40:13.0970,1540932013.096686,0.028742965013007202,0.09907997887919898,0.30852348386015366,0.10009765625,-0.2386627197265625,-1.18768310546875,36.83207702636719,20.133499145507812,-75.38389587402344,,,,,,,,,,
0,2018-10-30 16:40:06.3580,00:27,60,0,2018-10-30 16:40:13.1150,1540932013.114842,0.028742965013007202,0.09907997887919898,0.30852348386015366,0.10009765625,-0.2386627197265625,-1.18768310546875,37.6346435546875,19.974639892578125,-75.50227355957031,,,,,,,,,,
0,2018-10-30 16:40:06.3580,00:27,60,0,2018-10-30 16:40:13.1300,1540932013.1303,-0.09669218864583393,0.09821498415714124,0.28499365668097654,0.072540283203125,-0.1815643310546875,-1.229827880859375,37.87693786621094,19.61602783203125,-75.50244140625,,,,,,,,,,
0,2018-10-30 16:40:06.3580,00:27,60,0,2018-10-30 16:40:13.1470,1540932013.146727,-0.1567187743517839,0.0787203786616522,0.16504754434489774,0.06988525390625,-0.120849609375,-1.262908935546875,37.47540283203125,20.550491333007812,-75.25532531738281,,,,,,,,,,
0,2018-10-30 16:40:06.3580,00:27,60,0,2018-10-30 16:40:13.1640,1540932013.1642451,-0.08944625995194633,-0.08576017868716766,0.02240384267029159,0.080108642578125,-0.102996826171875,-1.3200531005859375,36.94071960449219,20.889892578125,-74.95953369140625,,,,,,,,,,
0,2018-10-30 16:40:06.3580,00:27,60,0,2018-10-30 16:40:13.1800,1540932013.17964,-0.06271664472303903,-0.2709034039855853,0.005035238673012816,0.1240997314453125,-0.129974365234375,-1.2974090576171875,36.94071960449219,20.889892578125,-74.95953369140625,,,,,,,,,,
0,2018-10-30 16:40:06.3580,00:27,60,0,2018-10-30 16:40:13.1960,1540932013.196313,-0.2031730921943631,-0.25189189591183664,0.18606814114500217,0.1711883544921875,-0.179412841796875,-1.2414093017578125,37.1417236328125,20.77288818359375,-74.79684448242188,,,,,,,,,,
0,2018-10-30 16:40:06.3580,00:27,60,0,2018-10-30 16:40:13.2130,1540932013.212916,-0.4543027914022191,-0.08742651858123024,0.5033065533563311,0.1944732666015625,-0.18609619140625,-1.207061767578125,37.816864013671875,20.328842163085938,-74.77665710449219,,,,,,,,,,
0,2018-10-30 16:40:06.3580,00:27,60,0,2018-10-30 16:40:13.2300,1540932013.229785,-0.530019923302589,-0.05233244700060207,0.5644071919299101,0.1057586669921875,0.021270751953125,-1.3035888671875,37.88050842285156,20.62603759765625,-75.15242004394531,,,,,,,,,,
0,2018-10-30 16:40:06.3580,00:27,60,0,2018-10-30 16:40:13.2470,1540932013.24653,-0.530019923302589,-0.05233244700060207,0.5644071919299101,0.1057586669921875,0.021270751953125,-1.3035888671875,38.05995178222656,21.680374145507812,-74.24476623535156,,,,,,,,,,
0,2018-10-30 16:40:06.3580,00:27,60,0,2018-10-30 16:40:13.2630,1540932013.263123,-0.252609351509504,-0.3221889623616772,0.30271726005156285,0.07464599609375,0.12127685546875,-1.2806396484375,37.306304931640625,21.90765380859375,-73.96504211425781,,,,,,,,,,
0,2018-10-30 16:40:06.3580,00:27,60,0,2018-10-30 16:40:13.2800,1540932013.279866,0.07850865735499091,-0.39436941633442185,-0.022993466535635134,0.07122802734375,0.0306243896484375,-0.998046875,37.306304931640625,21.90765380859375,-73.96504211425781,,,,,,,,,,
0,2018-10-30 16:40:06.3580,00:27,60,0,2018-10-30 16:40:13.2960,1540932013.296453,0.07850865735499091,-0.39436941633442185,-0.022993466535635134,0.07122802734375,0.0306243896484375,-0.998046875,37.24822998046875,22.2294921875,-74.11233520507812,,,,,,,,,,
0,2018-10-30 16:40:06.3580,00:27,60,0,2018-10-30 16:40:13.3130,1540932013.313102,0.004221642959993608,-0.2206631363373495,-0.0066983827737673,0.0953826904296875,-0.0561370849609375,-0.8841400146484375,37.30584716796875,21.207199096679688,-74.53756713867188,,,,,,,,,,
0,2018-10-30 16:40:06.3580,00:27,60,0,2018-10-30 16:40:13.3300,1540932013.32992,-0.06727677545758172,0.023329557465203134,0.007541006942668371,0.079986572265625,-0.0876922607421875,-0.802703857421875,37.715362548828125,21.59246826171875,-74.50093078613281,,,,,,,,,,
0,2018-10-30 16:40:06.3580,00:27,60,0,2018-10-30 16:40:13.3460,1540932013.3463311,-0.06727677545758172,0.023329557465203134,0.007541006942668371,0.079986572265625,-0.0876922607421875,-0.802703857421875,37.76625061035156,21.66107177734375,-74.10533142089844,,,,,,,,,,
0,2018-10-30 16:40:06.3580,00:27,60,0,2018-10-30 16:40:13.3630,1540932013.36309,0.13936827984991768,0.20369480545190963,-0.1518446569247209,0.072784423828125,-0.0649566650390625,-0.7805023193359375,37.4259033203125,22.583251953125,-73.93339538574219,,,,,,,,,,
0,2018-10-30 16:40:06.3580,00:27,60,0,2018-10-30 16:40:13.3810,1540932013.3808389,0.21815177542940475,0.16414633063201492,-0.18832170805942722,0.0950927734375,-0.0937652587890625,-0.769439697265625,37.4259033203125,22.583251953125,-73.93339538574219,,,,,,,,,,
0,2018-10-30 16:40:06.3580,00:27,60,0,2018-10-30 16:40:13.3980,1540932013.39763,0.21815177542940475,0.16414633063201492,-0.18832170805942722,0.0950927734375,-0.0937652587890625,-0.769439697265625,37.71775817871094,22.293121337890625,-73.69412231445312,,,,,,,,,,
0,2018-10-30 16:40:06.3580,00:27,60,0,2018-10-30 16:40:13.4130,1540932013.413125,0.5067111384938884,-0.11406105895922171,-0.2818993298104135,0.072357177734375,-0.1362152099609375,-0.7444305419921875,37.6851806640625,21.444000244140625,-74.11781311035156,,,,,,,,,,
0,2018-10-30 16:40:06.3580,00:27,60,0,2018-10-30 16:40:13.4300,1540932013.4298859,0.7493608001587141,-0.1299412222232552,-0.40940988490675334,0.019134521484375,-0.14154052734375,-0.711029052734375,38.084564208984375,21.209762573242188,-74.10481262207031,,,,,,,,,,
0,2018-10-30 16:40:06.3580,00:27,60,0,2018-10-30 16:40:13.4480,1540932013.447729,0.7493608001587141,-0.1299412222232552,-0.40940988490675334,0.019134521484375,-0.14154052734375,-0.711029052734375,37.991424560546875,20.373016357421875,-74.37521362304688,,,,,,,,,,
0,2018-10-30 16:40:06.3580,00:27,60,0,2018-10-30 16:40:13.4640,1540932013.4639869,0.9471071689998227,0.12597790588899926,-0.5076610880547197,0.0453948974609375,-0.2201690673828125,-0.654510498046875,37.63771057128906,20.675323486328125,-74.61737060546875,,,,,,,,,,
0,2018-10-30 16:40:06.3580,00:27,60,0,2018-10-30 16:40:13.4800,1540932013.480019,0.6442317171795091,0.35433305040282465,-0.35524411781174076,0.07940673828125,-0.2862396240234375,-0.6533203125,37.63771057128906,20.675323486328125,-74.61737060546875,,,,,,,,,,
0,2018-10-30 16:40:06.3580,00:27,60,0,2018-10-30 16:40:13.4970,1540932013.496501,0.17337338486081244,0.5528610570238716,-0.18461884887978106,0.1072540283203125,-0.330078125,-0.712066650390625,37.626953125,20.055770874023438,-74.71908569335938,,,,,,,,,,
0,2018-10-30 16:40:06.3580,00:27,60,0,2018-10-30 16:40:13.5130,1540932013.5130858,-0.19191138289274504,0.41755276625577964,-0.09260370374034428,0.1484832763671875,-0.3291015625,-0.857574462890625,37.95668029785156,20.224090576171875,-74.53875732421875,,,,,,,,,,
0,2018-10-30 16:40:06.3580,00:27,60,0,2018-10-30 16:40:13.5300,1540932013.529803,-0.37948793847916806,0.22334627113560432,-0.03390070909616366,0.1672821044921875,-0.30322265625,-0.9898834228515625,38.93840026855469,19.718719482421875,-74.81642150878906,,,,,,,,,,
0,2018-10-30 16:40:06.3580,00:27,60,0,2018-10-30 16:40:13.5470,1540932013.5465732,-0.4219632273370599,0.09163910679351758,0.005568936155464695,0.1683807373046875,-0.2741851806640625,-1.1003875732421875,38.96025085449219,19.948226928710938,-74.49444580078125,,,,,,,,,,
0,2018-10-30 16:40:06.3580,00:27,60,0,2018-10-30 16:40:13.5630,1540932013.563178,-0.324498988291212,-0.08444857185030363,-0.011805526796212254,0.15679931640625,-0.2431182861328125,-1.202301025390625,38.688079833984375,21.168075561523438,-74.15159606933594,,,,,,,,,,
0,2018-10-30 16:40:06.3580,00:27,60,0,2018-10-30 16:40:13.5800,1540932013.5800571,-0.1722117139933199,-0.14543735765809926,-0.002279665893107828,0.1542816162109375,-0.2262725830078125,-1.2700347900390625,38.5064697265625,21.205093383789062,-73.69174194335938,,,,,,,,,,
0,2018-10-30 16:40:06.3580,00:27,60,0,2018-10-30 16:40:13.5960,1540932013.596483,-0.034689004778827116,-0.09810206612692188,0.0020290624345313717,0.136322021484375,-0.219482421875,-1.3065032958984375,38.5064697265625,21.205093383789062,-73.69174194335938,,,,,,,,,,
0,2018-10-30 16:40:06.3580,00:27,60,0,2018-10-30 16:40:13.6140,1540932013.614307,0.02623400095004355,-0.019609387738471446,-0.027872910284878316,0.112335205078125,-0.2158660888671875,-1.31451416015625,38.54498291015625,21.663619995117188,-73.67256164550781,,,,,,,,,,
0,2018-10-30 16:40:06.3580,00:27,60,0,2018-10-30 16:40:13.6300,1540932013.62986,0.03731514792975425,0.026956250237673042,-0.06851088430672443,0.0926513671875,-0.20745849609375,-1.3512115478515625,39.02125549316406,20.636337280273438,-74.07521057128906,,,,,,,,,,
0,2018-10-30 16:40:06.3580,00:27,60,0,2018-10-30 16:40:13.6470,1540932013.6468449,0.07804686522197116,-0.1471625534122526,-0.17153820055363886,0.094085693359375,-0.1669769287109375,-1.4146881103515625,39.24591064453125,21.058319091796875,-73.96922302246094,,,,,,,,,,
0,2018-10-30 16:40:06.3580,00:27,60,0,2018-10-30 16:40:13.6630,1540932013.6632462,0.13615251283364702,-0.500781077694609,-0.32833420657703505,0.1161041259765625,-0.1079559326171875,-1.42132568359375,38.814361572265625,21.1439208984375,-73.83338928222656,,,,,,,,,,
0,2018-10-30 16:40:06.3580,00:27,60,0,2018-10-30 16:40:13.6800,1540932013.679905,0.09854867824172817,-0.7002222822534441,-0.4024606323583006,0.1238861083984375,-0.1074066162109375,-1.3251495361328125,37.75596618652344,21.741943359375,-73.634521484375,,,,,,,,,,
0,2018-10-30 16:40:06.3580,00:27,60,0,2018-10-30 16:40:13.6970,1540932013.696536,-0.03163702216959631,-0.524949264587078,-0.37329981737025997,0.0774993896484375,-0.1594696044921875,-1.2169952392578125,37.75596618652344,21.741943359375,-73.634521484375,,,,,,,,,,
0,2018-10-30 16:40:06.3580,00:27,60,0,2018-10-30 16:40:13.7130,1540932013.713272,-0.21293464285393954,-0.0489052249937791,-0.24202381880865703,0.071197509765625,-0.1810150146484375,-1.1324310302734375,37.610260009765625,22.237228393554688,-73.4678955078125,,,,,,,,,,
0,2018-10-30 16:40:06.3580,00:27,60,0,2018-10-30 16:40:13.7300,1540932013.729972,-0.25800864430353065,0.32865351959173555,-0.15266570948879232,0.0771636962890625,-0.1525115966796875,-1.1526336669921875,37.97245788574219,21.544586181640625,-73.31785583496094,,,,,,,,,,
0,2018-10-30 16:40:06.3580,00:27,60,0,2018-10-30 16:40:13.7470,1540932013.746698,-0.13528378968606317,0.2678756561422742,-0.12492782147118103,0.10589599609375,-0.0953826904296875,-1.2113189697265625,38.77943420410156,21.695419311523438,-73.50253295898438,,,,,,,,,,
0,2018-10-30 16:40:06.3580,00:27,60,0,2018-10-30 16:40:13.7630,1540932013.7632918,-0.015345134201036571,0.12405909832359718,-0.15190564331368372,0.1036529541015625,-0.0462188720703125,-1.1579742431640625,38.50239562988281,21.905105590820312,-73.6658935546875,,,,,,,,,,
0,2018-10-30 16:40:06.3580,00:27,60,0,2018-10-30 16:40:13.7800,1540932013.780127,-0.011217234511413751,0.11322908743468095,-0.15834516682949532,0.08306884765625,-0.02972412109375,-1.0345001220703125,38.348846435546875,22.790771484375,-73.32904052734375,,,,,,,,,,
0,2018-10-30 16:40:06.3580,00:27,60,0,2018-10-30 16:40:13.7970,1540932013.796845,-0.054539674912059743,0.1060350903820499,-0.14870585526395352,0.0633544921875,-0.038909912109375,-0.9489288330078125,38.348846435546875,22.790771484375,-73.32904052734375,,,,,,,,,,
0,2018-10-30 16:40:06.3580,00:27,60,0,2018-10-30 16:40:13.8130,1540932013.8132958,-0.10571311420625933,0.04917526952831313,-0.14233850341368307,0.054412841796875,-0.05328369140625,-0.8969573974609375,38.151092529296875,22.9080810546875,-73.10125732421875,,,,,,,,,,
0,2018-10-30 16:40:06.3580,00:27,60,0,2018-10-30 16:40:13.8310,1540932013.8310552,-0.13875175805756434,0.01484232938722961,-0.13273514452285734,0.0514373779296875,-0.05450439453125,-0.8475494384765625,38.31800842285156,22.642257690429688,-73.02401733398438,,,,,,,,,,
0,2018-10-30 16:40:06.3580,00:27,60,0,2018-10-30 16:40:13.8470,1540932013.846714,-0.1040821943546948,-0.0037835529606755737,-0.15632542545877923,0.0313873291015625,-0.0518035888671875,-0.79693603515625,38.94795227050781,22.439407348632812,-73.30952453613281,,,,,,,,,,
0,2018-10-30 16:40:06.3580,00:27,60,0,2018-10-30 16:40:13.8630,1540932013.863368,-0.034984083027607894,0.04759042236360698,-0.18626281822068697,0.024078369140625,-0.0590972900390625,-0.7496795654296875,38.97700500488281,22.278472900390625,-73.23588562011719,,,,,,,,,,
0,2018-10-30 16:40:06.3580,00:27,60,0,2018-10-30 16:40:13.8800,1540932013.879947,0.02885588304322656,0.10754350482347079,-0.18513337160238436,0.0299224853515625,-0.0763092041015625,-0.7231903076171875,38.546417236328125,23.373855590820312,-73.06240844726562,,,,,,,,,,
0,2018-10-30 16:40:06.3580,00:27,60,0,2018-10-30 16:40:13.8970,1540932013.896889,0.06034163766290637,0.0995415046961097,-0.15302496991984402,0.0395660400390625,-0.1002960205078125,-0.7139129638671875,38.11680603027344,23.45965576171875,-72.69229125976562,,,,,,,,,,
0,2018-10-30 16:40:06.3580,00:27,60,0,2018-10-30 16:40:13.9140,1540932013.913635,0.058215902480805125,-0.001216265669839188,-0.10603082932430578,0.044647216796875,-0.1137847900390625,-0.71221923828125,38.11680603027344,23.45965576171875,-72.69229125976562,,,,,,,,,,
0,2018-10-30 16:40:06.3580,00:27,60,0,2018-10-30 16:40:13.9300,1540932013.930138,0.043275835081569604,-0.12659096557193553,-0.09333154566626294,0.030120849609375,-0.1121063232421875,-0.7028656005859375,38.50138854980469,23.30584716796875,-72.75515747070312,,,,,,,,,,
