SessionID,SessionDate,SessionDuration,SessionFrequency,RecordID,Timestamp,timeIntervalSince1970,GyroX,GyroY,GyroZ,AccX,AccY,AccZ,MagX,MagY,MagZ
0,43:48.4,0:39,60,0,43:48.4,1540932228,0.140828225,0.52389918,0.103415073,0.020065308,-0.071243286,-1.097946167,44.26925659,11.47540283,-60.86079407
0,43:48.4,0:39,60,0,43:48.5,1540932228,0.143393382,0.3157537,-0.054258978,0.024551392,-0.065689087,-1.082550049,44.40777588,11.37055969,-60.77908325
0,43:48.4,0:39,60,0,43:48.5,1540932228,0.000535295,0.011582088,-0.192740958,0.033615112,-0.089126587,-1.062683105,44.29699707,11.31436157,-60.94332886
0,43:48.4,0:39,60,0,43:48.5,1540932228,-0.156502526,-0.116253906,-0.305301325,0.027206421,-0.112121582,-0.995697021,44.37872314,11.53146362,-60.85273743
0,43:48.4,0:39,60,0,43:48.5,1540932229,-0.233336321,-0.113151856,-0.355609504,0.02961731,-0.153442383,-0.948745728,44.37872314,11.53146362,-60.85273743
0,43:48.4,0:39,60,0,43:48.5,1540932229,-0.199188737,0.046465769,-0.322224116,0.02961731,-0.153442383,-0.948745728,44.32194519,11.85343933,-60.84384155
0,43:48.4,0:39,60,0,43:48.5,1540932229,-0.094188285,0.238736146,-0.239555867,0.029586792,-0.170211792,-0.962478638,44.32194519,11.85343933,-60.84384155
0,43:48.4,0:39,60,0,43:48.6,1540932229,-0.008995359,0.343607702,-0.162344968,0.065994263,-0.195465088,-1.023422241,44.57188416,11.80485535,-60.51982117
0,43:48.4,0:39,60,0,43:48.6,1540932229,0.069510901,0.295062003,-0.112093249,0.065994263,-0.195465088,-1.023422241,44.80244446,11.83624268,-60.81834412
0,43:48.4,0:39,60,0,43:48.6,1540932229,0.102665925,0.237358493,-0.097180346,0.066497803,-0.188796997,-1.019470215,44.90490723,11.5823822,-61.05641174
0,43:48.4,0:39,60,0,43:48.6,1540932229,0.081005105,0.026299248,-0.279481978,0.024078369,-0.150512695,-1.004104614,44.90490723,11.5823822,-61.05641174
0,43:48.4,0:39,60,0,43:48.6,1540932229,0.081005105,0.026299248,-0.279481978,0.024078369,-0.150512695,-1.004104614,44.97193909,11.57067871,-60.42871094
0,43:48.4,0:39,60,0,43:48.6,1540932229,0.098115648,-0.08481236,-0.394205366,0.007202148,-0.195495605,-0.959732056,44.98094177,11.4896698,-61.0557251
0,43:48.4,0:39,60,0,43:48.7,1540932229,0.14603284,0.040768469,-0.537557468,-0.0262146,-0.23147583,-0.913879395,44.87913513,11.74362183,-60.73957825
0,43:48.4,0:39,60,0,43:48.7,1540932229,0.14603284,0.040768469,-0.537557468,-0.0262146,-0.23147583,-0.913879395,44.63815308,12.1023407,-60.58319092
0,43:48.4,0:39,60,0,43:48.7,1540932229,0.109580024,0.201136573,-0.522358808,-0.010467529,-0.293197632,-0.927062988,44.66833496,12.2507782,-60.96632385
0,43:48.4,0:39,60,0,43:48.7,1540932229,-0.011387144,0.17540511,-0.288913563,0.03024292,-0.289306641,-0.993255615,44.85772705,12.21453857,-60.48901367
0,43:48.4,0:39,60,0,43:48.7,1540932229,-0.011387144,0.17540511,-0.288913563,0.03024292,-0.289306641,-0.993255615,44.85772705,12.21453857,-60.48901367
0,43:48.4,0:39,60,0,43:48.7,1540932229,-0.099939914,-0.360415977,-0.24136442,0.006988525,-0.259765625,-1.060394287,44.76490784,12.38748169,-60.79986572
0,43:48.4,0:39,60,0,43:48.8,1540932229,-0.08169513,-0.467143489,-0.37321646,-0.033309937,-0.232467651,-1.031143188,44.75137329,12.4680481,-60.71954346
0,43:48.4,0:39,60,0,43:48.8,1540932229,-0.08169513,-0.467143489,-0.37321646,-0.049026489,-0.245071411,-1.034317017,44.56521606,12.50460815,-60.80636597
0,43:48.4,0:39,60,0,43:48.8,1540932229,-0.093121955,-0.507123928,-0.625986401,-0.048614502,-0.27684021,-0.993392944,44.41690063,12.99964905,-60.95211792
0,43:48.4,0:39,60,0,43:48.8,1540932229,-0.093121955,-0.507123928,-0.625986401,-0.048614502,-0.27684021,-0.993392944,44.30873108,12.94369507,-60.80397034
0,43:48.4,0:39,60,0,43:48.8,1540932229,-0.210127405,-0.253431203,-0.493929297,0.002090454,-0.302322388,-0.952316284,44.30873108,12.94369507,-60.80397034
0,43:48.4,0:39,60,0,43:48.8,1540932229,-0.30206878,0.159869827,-0.033997648,0.001358032,-0.284225464,-0.998580933,44.46714783,13.06819153,-60.63461304
0,43:48.4,0:39,60,0,43:48.9,1540932229,-0.194222208,0.095835716,0.032290828,0.002563477,-0.242767334,-1.057449341,44.38197327,13.5511322,-60.6212616
0,43:48.4,0:39,60,0,43:48.9,1540932229,-0.051083957,-0.055637696,-0.0289696,-0.003952026,-0.204528809,-1.083526611,44.6492157,13.73161316,-60.52192688
0,43:48.4,0:39,60,0,43:48.9,1540932229,0.020841366,-0.159854114,-0.106217517,-0.010040283,-0.195068359,-1.063476563,44.55638123,13.90455627,-60.83277893
0,43:48.4,0:39,60,0,43:48.9,1540932229,0.020841366,-0.159854114,-0.106217517,-0.025375366,-0.209838867,-1.041275024,44.44625854,13.84841919,-60.91891479
0,43:48.4,0:39,60,0,43:48.9,1540932229,0.072267007,-0.189474058,-0.125541946,-0.022521973,-0.227416992,-1.048233032,44.44625854,13.84841919,-60.91891479
0,43:48.4,0:39,60,0,43:48.9,1540932229,0.083028574,-0.160485283,-0.097666373,-0.018371582,-0.240203857,-1.050888062,44.68070984,13.88018799,-60.74887085
0,43:48.4,0:39,60,0,43:49.0,1540932229,0.083028574,-0.160485283,-0.097666373,-0.008987427,-0.244918823,-1.056503296,44.84875488,13.92375183,-61.12838745
0,43:48.4,0:39,60,0,43:49.0,1540932229,0.123097963,-0.02928625,-0.004349208,0.006958008,-0.246520996,-1.053451538,44.62197876,14.20196533,-60.97427368
0,43:48.4,0:39,60,0,43:49.0,1540932229,0.125448736,0.012582637,0.068520472,0.024642944,-0.259170532,-1.063247681,44.88288879,14.07258606,-61.04293823
0,43:48.4,0:39,60,0,43:49.0,1540932229,0.135945053,0.019838952,0.122069983,0.022109985,-0.266159058,-1.076324463,45.09986877,14.18450928,-61.26112366
0,43:48.4,0:39,60,0,43:49.0,1540932229,0.116923691,0.016755278,0.127425068,0.020980835,-0.253448486,-1.084320068,45.09986877,14.18450928,-61.26112366
0,43:48.4,0:39,60,0,43:49.0,1540932229,0.056812417,0.011992747,0.110299877,0.005310059,-0.242523193,-1.074554443,45.27249146,14.22850037,-61.09399414
0,43:48.4,0:39,60,0,43:49.1,1540932229,-0.047601341,0.012934973,0.125318241,-0.001739502,-0.230178833,-1.086151123,45.1829071,14.40177917,-61.01435852
0,43:48.4,0:39,60,0,43:49.1,1540932229,-0.177643764,-0.013032711,0.169222848,-0.00138855,-0.212966919,-1.117919922,45.60531616,14.7064209,-61.13615417
0,43:48.4,0:39,60,0,43:49.1,1540932229,-0.299130515,0.091646564,0.249695853,0.010055542,-0.179290771,-1.133010864,45.63369751,14.54544067,-61.14059448
0,43:48.4,0:39,60,0,43:49.1,1540932229,-0.319417677,0.191070889,0.319429395,0.005050659,-0.154891968,-1.168945313,45.87060547,14.88673401,-61.27113342
0,43:48.4,0:39,60,0,43:49.1,1540932229,-0.223118571,0.12085931,0.335382529,-0.000259399,-0.131439209,-1.217453003,46.15267944,14.98675537,-61.09593201
0,43:48.4,0:39,60,0,43:49.1,1540932229,-0.021204621,-0.068863221,0.231226298,-0.008880615,-0.103485107,-1.243240356,46.15267944,14.98675537,-61.09593201
0,43:48.4,0:39,60,0,43:49.2,1540932229,0.234496128,-0.273957517,0.05529042,-0.022888184,-0.088119507,-1.210281372,46.15774536,15.29652405,-61.0841217
0,43:48.4,0:39,60,0,43:49.2,1540932229,0.424089495,-0.436393033,-0.080955037,-0.00642395,-0.083145142,-1.127731323,46.10620117,15.2278595,-61.55783081
0,43:48.4,0:39,60,0,43:49.2,1540932229,0.440168064,-0.517689487,-0.075704881,0.009277344,-0.108551025,-1.050109863,46.13198853,15.06660461,-61.87467957
0,43:48.4,0:39,60,0,43:49.2,1540932229,0.310906214,-0.444469335,0.046494798,0.011886597,-0.133422852,-0.973236084,45.85742188,15.58581543,-62.33863831
0,43:48.4,0:39,60,0,43:49.2,1540932229,0.185389834,-0.316028804,0.145202733,-0.006027222,-0.12727356,-0.926605225,46.07002258,15.38807678,-62.49055481
0,43:48.4,0:39,60,0,43:49.2,1540932229,0.128561705,-0.191158241,0.160362511,-0.012619019,-0.091018677,-0.91545105,46.07002258,15.38807678,-62.49055481
0,43:48.4,0:39,60,0,43:49.3,1540932229,0.121579429,-0.03541658,0.179831817,0.002944946,-0.058761597,-0.909683228,46.02238464,15.3197937,-62.49568176
0,43:48.4,0:39,60,0,43:49.3,1540932229,0.141990162,0.128530812,0.245351705,0.023605347,-0.034744263,-0.919067383,46.10346985,15.53684998,-62.48320007
0,43:48.4,0:39,60,0,43:49.3,1540932229,0.200686232,0.212148744,0.291487775,0.018081665,-0.007736206,-0.953964233,46.50093079,15.30239868,-62.70448303
0,43:48.4,0:39,60,0,43:49.3,1540932229,0.274913858,0.243021439,0.236894038,0.018081665,-0.007736206,-0.953964233,46.75267029,15.56326294,-62.75914001
0,43:48.4,0:39,60,0,43:49.3,1540932229,0.345606138,0.211605992,0.079421589,0.003234863,-0.000274658,-0.959197998,46.71073914,15.80477905,-62.67436218
0,43:48.4,0:39,60,0,43:49.3,1540932229,0.431515187,0.106687831,-0.126333971,-0.004745483,-0.035903931,-0.990600586,46.92462158,15.60719299,-62.67008972
0,43:48.4,0:39,60,0,43:49.4,1540932229,0.481605253,0.014921425,-0.289230213,-0.004745483,-0.035903931,-0.990600586,46.92462158,15.60719299,-62.67008972
0,43:48.4,0:39,60,0,43:49.4,1540932229,0.476704237,0.030513701,-0.389870805,0.008499146,-0.05921936,-0.968933105,46.92201233,15.60693359,-62.98248291
0,43:48.4,0:39,60,0,43:49.4,1540932229,0.178237116,-0.062210111,-0.288181461,0.096725464,-0.139663696,-0.960769653,46.985672,15.90414429,-63.35823059
0,43:48.4,0:39,60,0,43:49.4,1540932229,0.178237116,-0.062210111,-0.288181461,0.096725464,-0.139663696,-0.960769653,47.01911926,16.05291748,-63.35089111
0,43:48.4,0:39,60,0,43:49.4,1540932229,-0.043814859,-0.183230277,-0.055900284,0.102905273,-0.185073853,-0.965560913,46.77616882,16.41146851,-63.42881775
0,43:48.4,0:39,60,0,43:49.4,1540932229,-0.20282262,-0.341386093,0.115280787,0.102905273,-0.185073853,-0.965560913,46.74649048,16.57232666,-63.58056641
0,43:48.4,0:39,60,0,43:49.5,1540932229,-0.257624883,-0.447943695,0.116233399,0.065856934,-0.170959473,-0.94708252,46.74649048,16.57232666,-63.58056641
0,43:48.4,0:39,60,0,43:49.5,1540932229,-0.263328575,-0.400002535,0.042404449,0.034210205,-0.198287964,-0.874298096,46.51644897,16.85023499,-63.81692505
0,43:48.4,0:39,60,0,43:49.5,1540932229,-0.24532534,-0.280150965,0.05111485,0.034210205,-0.198287964,-0.874298096,46.47386169,17.09170532,-63.8102417
0,43:48.4,0:39,60,0,43:49.5,1540932230,-0.194615024,-0.140375487,0.138014861,0.028106689,-0.252258301,-0.872207642,46.5388031,17.38905334,-64.02978516
0,43:48.4,0:39,60,0,43:49.5,1540932230,0.197524528,0.123127258,0.381331112,0.05619812,-0.281677246,-0.957443237,46.71450806,17.74261475,-64.08512878
0,43:48.4,0:39,60,0,43:49.5,1540932230,0.197524528,0.123127258,0.381331112,0.05619812,-0.281677246,-0.957443237,46.88012695,17.47665405,-64.16407776
0,43:48.4,0:39,60,0,43:49.6,1540932230,0.489371297,0.125271369,0.496916565,0.071365356,-0.273468018,-1.034729004,46.88012695,17.47665405,-64.16407776
0,43:48.4,0:39,60,0,43:49.6,1540932230,0.756248267,0.007307448,0.414250447,0.023010254,-0.248672485,-0.996795654,47.08358765,17.66915894,-64.30197144
0,43:48.4,0:39,60,0,43:49.6,1540932230,0.756248267,0.007307448,0.414250447,0.023010254,-0.248672485,-0.996795654,47.05978394,17.43943787,-64.85823059
0,43:48.4,0:39,60,0,43:49.6,1540932230,0.679612079,0.134895501,0.338395097,-0.055923462,-0.296325684,-0.99180603,47.56361389,16.95150757,-64.84898376
0,43:48.4,0:39,60,0,43:49.6,1540932230,0.439177368,-0.212955416,0.267347019,0.008361816,-0.271438599,-1.021652222,47.48808289,17.35353088,-65.384552
0,43:48.4,0:39,60,0,43:49.6,1540932230,0.439177368,-0.212955416,0.267347019,0.008361816,-0.271438599,-1.021652222,47.51452637,17.19233704,-65.62327576
0,43:48.4,0:39,60,0,43:49.7,1540932230,0.296077999,-0.218501981,0.104603641,-0.057357788,-0.240081787,-0.997451782,47.51452637,17.19233704,-65.62327576
0,43:48.4,0:39,60,0,43:49.7,1540932230,0.381076248,0.245429469,-0.079032767,-0.110122681,-0.186355591,-0.973358154,47.34191895,17.14834595,-65.79043579
0,43:48.4,0:39,60,0,43:49.7,1540932230,0.381076248,0.245429469,-0.079032767,-0.116744995,-0.167678833,-0.99118042,47.41664124,17.05551147,-65.94593811
0,43:48.4,0:39,60,0,43:49.7,1540932230,0.39560459,0.828099821,-0.30426935,-0.058532715,-0.196975708,-1.033935547,47.8526001,17.27961731,-66.14805603
0,43:48.4,0:39,60,0,43:49.7,1540932230,0.255507936,0.63137291,-0.270210716,0.007263184,-0.247543335,-1.105926514,48.16488647,17.52813721,-66.35598755
0,43:48.4,0:39,60,0,43:49.7,1540932230,0.255507936,0.63137291,-0.270210716,0.05027771,-0.269073486,-1.167266846,48.10876465,17.85014343,-66.26899719
0,43:48.4,0:39,60,0,43:49.8,1540932230,-0.163166554,-0.465811109,-0.240408345,0.023910522,-0.281036377,-1.173446655,47.75439453,18.1524353,-66.58926392
0,43:48.4,0:39,60,0,43:49.8,1540932230,-0.434051049,-0.791883227,-0.275012928,-0.014770508,-0.273223877,-1.108154297,47.75439453,18.1524353,-66.58926392
0,43:48.4,0:39,60,0,43:49.8,1540932230,-0.658311051,-0.74877091,-0.239567319,-0.040985107,-0.261383057,-1.030410767,47.20097351,18.57189941,-66.8379364
0,43:48.4,0:39,60,0,43:49.8,1540932230,-0.726965213,-0.511753568,-0.110755011,-0.052703857,-0.250656128,-1.015426636,46.65519714,19.30136108,-66.76239014
0,43:48.4,0:39,60,0,43:49.8,1540932230,-0.565185634,-0.216369322,0.015932095,-0.053527832,-0.197662354,-1.040527344,46.51980591,19.71577454,-67.06655884
0,43:48.4,0:39,60,0,43:49.8,1540932230,-0.244563409,0.004553473,-0.010644122,-0.086700439,-0.128250122,-1.081100464,46.345047,20.37199402,-66.97357178
0,43:48.4,0:39,60,0,43:49.9,1540932230,0.004601143,0.107767743,-0.182985532,-0.104904175,-0.065109253,-1.061157227,46.01971436,20.51335144,-67.22019958
0,43:48.4,0:39,60,0,43:49.9,1540932230,0.075303809,0.077433806,-0.34045665,-0.095092773,-0.057556152,-1.011703491,46.01971436,20.51335144,-67.22019958
0,43:48.4,0:39,60,0,43:49.9,1540932230,0.024152741,0.012109393,-0.381217662,-0.058822632,-0.087661743,-0.964050293,45.94303894,20.60598755,-67.29896545
0,43:48.4,0:39,60,0,43:49.9,1540932230,0.002951581,0.009982593,-0.339451573,-0.043960571,-0.125,-0.944900513,45.86700439,20.69869995,-67.2996521
0,43:48.4,0:39,60,0,43:49.9,1540932230,0.030029272,0.106681972,-0.242961252,-0.047683716,-0.153686523,-0.931472778,45.36123657,21.18644714,-67.54318237
0,43:48.4,0:39,60,0,43:49.9,1540932230,0.059232431,0.206580074,-0.140042326,-0.052932739,-0.168777466,-0.925338745,45.28585815,21.27919006,-67.46575928
0,43:48.4,0:39,60,0,43:50.0,1540932230,0.024202009,0.307240373,-0.073516296,-0.049057007,-0.159057617,-0.907897949,45.30252075,21.50820923,-67.76858521
0,43:48.4,0:39,60,0,43:50.0,1540932230,-0.008182296,0.34423168,-0.04990391,-0.039108276,-0.140106201,-0.918624878,45.25993347,21.74969482,-67.76191711
0,43:48.4,0:39,60,0,43:50.0,1540932230,0.043035618,0.292981542,-0.069254972,-0.037338257,-0.122802734,-0.967056274,45.25993347,21.74969482,-67.76191711
0,43:48.4,0:39,60,0,43:50.0,1540932230,0.102019576,0.167111494,-0.110117184,-0.031921387,-0.1197052,-0.99331665,45.105896,21.93489075,-67.99757385
0,43:48.4,0:39,60,0,43:50.0,1540932230,0.111374995,0.041584994,-0.11777031,-0.018707275,-0.133575439,-0.962219238,44.87275696,21.90324402,-68.01142883
0,43:48.4,0:39,60,0,43:50.0,1540932230,0.084866156,0.026688336,-0.11564058,-0.024017334,-0.14906311,-0.908294678,44.56538391,22.27374268,-68.40466309
0,43:48.4,0:39,60,0,43:50.1,1540932230,-0.003141997,0.096563292,-0.06734442,-0.024108887,-0.174179077,-0.848602295,44.59687805,22.42230225,-68.63156128
0,43:48.4,0:39,60,0,43:50.1,1540932230,-0.069413696,0.240740708,0.011022291,-0.010391235,-0.226165771,-0.823944092,44.56538391,22.27374268,-68.40466309
0,43:48.4,0:39,60,0,43:50.1,1540932230,-0.16894588,0.445623283,0.135518947,-0.010391235,-0.226165771,-0.823944092,44.56538391,22.27374268,-68.40466309
0,43:48.4,0:39,60,0,43:50.1,1540932230,-0.26769323,0.503557956,0.220212263,0.002593994,-0.231826782,-0.864578247,44.95368958,22.42953491,-68.6118927
0,43:48.4,0:39,60,0,43:50.1,1540932230,-0.411077024,0.1878213,0.270187813,0.004592896,-0.220123291,-0.987380981,44.7881012,22.69551086,-68.53294373
0,43:48.4,0:39,60,0,43:50.1,1540932230,-0.516434073,-0.143037317,0.223757996,0.004592896,-0.220123291,-0.987380981,44.49946594,22.98596191,-68.38171387
0,43:48.4,0:39,60,0,43:50.2,1540932230,-0.544508851,-0.343561629,0.127139843,-0.027175903,-0.200302124,-0.998123169,44.22683716,23.50535583,-68.6113739
0,43:48.4,0:39,60,0,43:50.2,1540932230,-0.480452636,-0.38928704,0.047824248,-0.043746948,-0.205856323,-1.002120972,43.87506104,23.80787659,-68.61924744
0,43:48.4,0:39,60,0,43:50.2,1540932230,-0.316051175,-0.293443068,0.028627384,-0.040466309,-0.216537476,-1.016098022,43.58007813,23.78842163,-68.63601685
0,43:48.4,0:39,60,0,43:50.2,1540932230,-0.072891518,-0.109868711,0.060921142,-0.037307739,-0.228210449,-1.075683594,43.58007813,23.78842163,-68.63601685
0,43:48.4,0:39,60,0,43:50.2,1540932230,0.423573375,0.215012707,0.122241491,-0.049179077,-0.228988647,-1.089645386,43.55888367,23.55899048,-68.87989807
0,43:48.4,0:39,60,0,43:50.2,1540932230,0.423573375,0.215012707,0.122241491,-0.049179077,-0.228988647,-1.089645386,43.41906738,23.66371155,-69.11778259
0,43:48.4,0:39,60,0,43:50.3,1540932230,0.391756056,0.195849133,0.122225512,-0.028564453,-0.240997314,-1.041473389,43.3334198,23.44619751,-69.67695618
0,43:48.4,0:39,60,0,43:50.3,1540932230,0.113236811,0.095341167,0.22925476,-0.004272461,-0.248458862,-1.087188721,43.20976257,23.47062683,-69.68276978
0,43:48.4,0:39,60,0,43:50.3,1540932230,0.113236811,0.095341167,0.22925476,-0.004272461,-0.248458862,-1.087188721,43.32902527,23.13652039,-69.610672
0,43:48.4,0:39,60,0,43:50.3,1540932230,0.128429612,0.044119791,0.289156177,-0.026031494,-0.184204102,-1.175872803,43.32902527,23.13652039,-69.610672
0,43:48.4,0:39,60,0,43:50.3,1540932230,0.115763884,0.022956182,0.202393319,-0.059829712,-0.17137146,-1.190475464,43.09326172,23.104599,-69.93690491
0,43:48.4,0:39,60,0,43:50.3,1540932230,0.115763884,0.022956182,0.202393319,-0.052444458,-0.161178589,-1.172348022,42.93356323,22.97998047,-70.26246643
0,43:48.4,0:39,60,0,43:50.4,1540932230,-0.036340431,0.082144139,0.101841943,-0.026550293,-0.138946533,-1.190200806,42.82408142,22.92391968,-70.27050781
0,43:48.4,0:39,60,0,43:50.4,1540932230,-0.036340431,0.082144139,0.101841943,-0.026550293,-0.138946533,-1.190200806,42.79063416,22.77513123,-70.27786255
0,43:48.4,0:39,60,0,43:50.4,1540932230,0.010650514,0.027728301,0.072850239,0.031341553,-0.058166504,-1.255462646,42.57167053,22.66300964,-70.29396057
0,43:48.4,0:39,60,0,43:50.4,1540932230,0.303056014,-0.182323204,-0.033494577,0.026901245,-0.013504028,-1.215087891,42.57167053,22.66300964,-70.29396057
0,43:48.4,0:39,60,0,43:50.4,1540932230,0.303056014,-0.182323204,-0.033494577,0.026901245,-0.013504028,-1.215087891,42.2845459,22.25320435,-70.48095703
0,43:48.4,0:39,60,0,43:50.4,1540932230,0.449324012,-0.284164615,-0.342063601,-0.013381958,0.001861572,-1.116027832,41.94520569,21.77464294,-71.21975708
0,43:48.4,0:39,60,0,43:50.5,1540932230,0.597293503,-0.260489379,-0.39668397,0.002532959,-0.038742065,-1.093856812,41.38803101,21.88449097,-71.3240509
0,43:48.4,0:39,60,0,43:50.5,1540932230,0.597293503,-0.260489379,-0.39668397,0.027053833,-0.099517822,-1.04524231,40.88258362,21.3625946,-71.44903564
0,43:48.4,0:39,60,0,43:50.5,1540932230,0.799491079,-0.02627741,-0.216538965,0.040618896,-0.162780762,-0.970809937,40.73265076,20.84779358,-71.71052551
0,43:48.4,0:39,60,0,43:50.5,1540932231,0.707862359,0.127616549,-0.072831597,0.040420532,-0.214431763,-0.886352539,40.73265076,20.84779358,-71.71052551
0,43:48.4,0:39,60,0,43:50.5,1540932231,0.707862359,0.127616549,-0.072831597,0.049072266,-0.24937439,-0.815170288,40.69223022,20.38908386,-71.96398926
0,43:48.4,0:39,60,0,43:50.5,1540932231,0.008321313,0.0433022,0.240995306,0.061904907,-0.274093628,-0.770095825,40.68716431,20.07931519,-71.9757843
0,43:48.4,0:39,60,0,43:50.6,1540932231,-0.447930646,-0.225359621,0.359639399,0.056503296,-0.280181885,-0.750549316,40.52679443,19.95466614,-72.37945557
0,43:48.4,0:39,60,0,43:50.6,1540932231,-0.833738798,-0.531193845,0.408614665,0.020584106,-0.264129639,-0.747543335,40.28514099,20.31330872,-72.30117798
0,43:48.4,0:39,60,0,43:50.6,1540932231,-1.120235277,-0.721987765,0.392385361,-0.029281616,-0.241165161,-0.728668213,39.98297119,20.68432617,-72.06962585
0,43:48.4,0:39,60,0,43:50.6,1540932231,-1.250525906,-0.691233847,0.317494342,-0.087509155,-0.230560303,-0.723220825,39.98297119,20.68432617,-72.06962585
0,43:48.4,0:39,60,0,43:50.6,1540932231,-1.230850738,-0.523520479,0.254515642,-0.123184204,-0.226745605,-0.745132446,39.27290344,21.67988586,-71.75895691
0,43:48.4,0:39,60,0,43:50.6,1540932231,-1.060816957,-0.277438269,0.248353087,-0.134460449,-0.227676392,-0.788955688,39.0802002,22.10696411,-71.5193634
0,43:48.4,0:39,60,0,43:50.7,1540932231,-0.734707289,-0.030669496,0.236799496,-0.143493652,-0.19821167,-0.848922729,38.96925354,22.75114441,-71.18917847
0,43:48.4,0:39,60,0,43:50.7,1540932231,-0.335771084,0.199591673,0.121334418,-0.156967163,-0.145599365,-0.910263062,38.83201599,22.85614014,-71.1146698
0,43:48.4,0:39,60,0,43:50.7,1540932231,-0.111828265,0.398628077,-0.150472863,-0.18296814,-0.119110107,-0.91267395,39.11218262,22.95599365,-71.17378235
0,43:48.4,0:39,60,0,43:50.7,1540932231,-0.16102484,0.591667575,-0.430788677,-0.190887451,-0.133529663,-0.858795166,39.11218262,22.95599365,-71.17378235
0,43:48.4,0:39,60,0,43:50.7,1540932231,-0.342972005,0.612298285,-0.554939388,-0.11529541,-0.150558472,-0.861572266,39.11282349,22.95605469,-71.09568787
0,43:48.4,0:39,60,0,43:50.7,1540932231,-0.494177237,0.5683263,-0.556028088,-0.062683105,-0.199905396,-0.928955078,39.11412048,22.95617676,-70.93948364
0,43:48.4,0:39,60,0,43:50.8,1540932231,-0.535519884,0.467576519,-0.416930386,0.00177002,-0.231887817,-1.013748169,39.03025818,23.43927002,-70.76994324
0,43:48.4,0:39,60,0,43:50.8,1540932231,-0.37336906,0.380827775,-0.210400112,0.039657593,-0.237213135,-1.112075806,39.1570282,23.72441101,-70.98661804
0,43:48.4,0:39,60,0,43:50.8,1540932231,0.032827721,0.351083728,0.031480162,0.052963257,-0.210525513,-1.21887207,39.32392883,23.45855713,-70.90936279
0,43:48.4,0:39,60,0,43:50.8,1540932231,0.404678779,0.463612936,0.210363361,0.040786743,-0.18081665,-1.241333008,39.53277588,22.95120239,-70.91688538
0,43:48.4,0:39,60,0,43:50.8,1540932231,0.587652061,0.660363017,0.337994557,0.017456055,-0.147583008,-1.193313599,39.53277588,22.95120239,-70.91688538
0,43:48.4,0:39,60,0,43:50.8,1540932231,0.661061297,0.838123959,0.338196158,-0.017028809,-0.116073608,-1.162918091,40.15766907,22.43856812,-71.2142334
0,43:48.4,0:39,60,0,43:50.9,1540932231,0.647434967,0.927452241,0.211947942,-0.043167114,-0.091598511,-1.146972656,40.76461792,21.69683838,-71.36494446
0,43:48.4,0:39,60,0,43:50.9,1540932231,0.533264452,0.846155254,-0.010864099,-0.055419922,-0.090301514,-1.152008057,41.17497253,21.3817749,-71.74465942
0,43:48.4,0:39,60,0,43:50.9,1540932231,0.204613063,0.513593279,-0.177178776,-0.030517578,-0.13130188,-1.167541504,41.34185791,21.11592102,-71.66740417
0,43:48.4,0:39,60,0,43:50.9,1540932231,-0.296144845,-0.013940583,-0.130591034,0.045211792,-0.181793213,-1.198150635,41.00561523,21.33811951,-71.52130127
0,43:48.4,0:39,60,0,43:50.9,1540932231,-0.691208547,-0.486746485,0.041329597,0.091812134,-0.179031372,-1.241867065,41.00561523,21.33811951,-71.52130127
0,43:48.4,0:39,60,0,43:50.9,1540932231,-0.700711771,-0.683923736,0.14496225,0.071670532,-0.094238281,-1.27571106,40.62739563,21.80181885,-71.29043579
0,43:48.4,0:39,60,0,43:51.0,1540932231,-0.361157134,-0.586336193,0.080749175,0.000823975,0.007614136,-1.284179688,40.09666443,21.75045776,-71.63345337
0,43:48.4,0:39,60,0,43:51.0,1540932231,0.2090672,-0.33771892,-0.167521355,-0.067367554,0.072433472,-1.250152588,39.83578491,21.87988281,-71.56477356
0,43:48.4,0:39,60,0,43:51.0,1540932231,0.649827285,-0.178645645,-0.43300496,-0.022369385,0.026596069,-1.070831299,39.58796692,21.22827148,-72.14891052
0,43:48.4,0:39,60,0,43:51.0,1540932231,0.789175325,-0.086364983,-0.582845321,-0.022369385,0.026596069,-1.070831299,39.34602356,20.57722473,-72.0302124
0,43:48.4,0:39,60,0,43:51.0,1540932231,0.729846754,-0.111818411,-0.56679951,0.026580811,-0.053894043,-0.991195679,39.34602356,20.57722473,-72.0302124
0,43:48.4,0:39,60,0,43:51.0,1540932231,0.597470337,-0.147733801,-0.464009215,0.042404175,-0.167434692,-0.882598877,39.04141235,20.24758911,-72.60546875
0,43:48.4,0:39,60,0,43:51.1,1540932231,0.434018559,-0.233143508,-0.351634736,0.042404175,-0.167434692,-0.882598877,38.90390015,19.34288025,-72.49050903
0,43:48.4,0:39,60,0,43:51.1,1540932231,0.267306272,-0.336767905,-0.274620378,0.035095215,-0.179397583,-0.850723267,38.63911438,19.47187805,-72.89041138
0,43:48.4,0:39,60,0,43:51.1,1540932231,0.003290868,-0.344568038,-0.124645793,0.050994873,-0.157684326,-0.793655396,38.24247742,19.00598145,-73.08544922
0,43:48.4,0:39,60,0,43:51.1,1540932231,0.003290868,-0.344568038,-0.124645793,0.050994873,-0.157684326,-0.793655396,37.98794556,19.44528198,-72.84877014
0,43:48.4,0:39,60,0,43:51.1,1540932231,-0.04424709,-0.220142222,-0.020607274,0.013168335,-0.167007446,-0.789520264,37.782547,19.25259399,-72.94515991
0,43:48.4,0:39,60,0,43:51.1,1540932231,-0.061395451,0.111532388,0.115805429,-0.003875732,-0.164169312,-0.813568115,37.782547,19.25259399,-72.94515991
0,43:48.4,0:39,60,0,43:51.2,1540932231,-0.061395451,0.111532388,0.115805429,-0.003875732,-0.164169312,-0.813568115,38.13624573,18.95022583,-72.70300293
0,43:48.4,0:39,60,0,43:51.2,1540932231,-0.058109376,0.115972942,0.079400816,-0.035140991,-0.178817749,-0.881225586,38.13624573,18.95022583,-72.70300293
0,43:48.4,0:39,60,0,43:51.2,1540932231,-0.062167501,-0.114964137,-0.042961316,-0.03565979,-0.185958862,-0.898147583,37.96234131,18.90611267,-73.02635193
0,43:48.4,0:39,60,0,43:51.2,1540932231,-0.062167501,-0.114964137,-0.042961316,-0.03565979,-0.185958862,-0.898147583,37.96429443,18.90631104,-72.79206848
0,43:48.4,0:39,60,0,43:51.2,1540932231,-0.054300789,-0.192594217,-0.123373601,-0.010955811,-0.195327759,-0.909072876,37.94699097,18.67724609,-72.56735229
0,43:48.4,0:39,60,0,43:51.2,1540932231,0.03812608,-0.223882099,-0.09452118,0.006546021,-0.205581665,-0.952209473,37.94699097,18.67724609,-72.56735229
0,43:48.4,0:39,60,0,43:51.3,1540932231,0.03812608,-0.223882099,-0.09452118,0.007995605,-0.204772949,-0.993286133,37.70684814,18.33564758,-72.82731628
0,43:48.4,0:39,60,0,43:51.3,1540932231,0.416525052,-0.231964793,-0.063567258,-0.018112183,-0.197692871,-0.997161865,37.56393433,18.13079834,-72.8427124
0,43:48.4,0:39,60,0,43:51.3,1540932231,0.570806235,-0.221132385,-0.167464629,-0.054397583,-0.193161011,-0.979400635,37.27612305,17.72091675,-73.10780334
0,43:48.4,0:39,60,0,43:51.3,1540932231,0.570806235,-0.221132385,-0.167464629,-0.07208252,-0.202392578,-0.941757202,37.23631287,17.26225281,-73.28317261
0,43:48.4,0:39,60,0,43:51.3,1540932231,0.581598696,-0.004412858,-0.292490721,-0.065414429,-0.227630615,-0.926712036,37.10694885,16.97686768,-73.37889099
0,43:48.4,0:39,60,0,43:51.3,1540932231,0.626433545,0.171304908,-0.253733738,-0.045730591,-0.255111694,-0.972579956,37.10694885,16.97686768,-73.37889099
0,43:48.4,0:39,60,0,43:51.4,1540932231,0.670677972,0.300262092,-0.150782588,-0.014923096,-0.273971558,-1.018890381,37.34288025,16.30838013,-73.54707336
0,43:48.4,0:39,60,0,43:51.4,1540932231,0.607817517,0.374931004,-0.009321596,0.020355225,-0.276550293,-1.028884888,37.40751648,15.59602356,-73.72619629
0,43:48.4,0:39,60,0,43:51.4,1540932231,0.429427003,0.389031376,0.138517666,0.047393799,-0.263656616,-1.025436401,37.4365387,15.43511963,-73.65252686
0,43:48.4,0:39,60,0,43:51.4,1540932231,0.162498633,0.392336625,0.223184085,0.047317505,-0.23324585,-1.027816772,37.87789917,14.95932007,-73.72431946
0,43:48.4,0:39,60,0,43:51.4,1540932231,-0.14988244,0.356538414,0.187876694,0.010177612,-0.207244873,-1.067703247,38.15931702,15.05931091,-73.62721252
0,43:48.4,0:39,60,0,43:51.4,1540932231,-0.14988244,0.356538414,0.187876694,0.015716553,-0.159698486,-1.119949341,38.45625305,15.07894897,-73.37615967
0,43:48.4,0:39,60,0,43:51.5,1540932231,-0.494429971,0.225479729,-0.021020064,0.050094604,-0.127059937,-1.193466187,38.45625305,15.07894897,-73.37615967
0,43:48.4,0:39,60,0,43:51.5,1540932231,-0.425380862,0.190901512,0.075298217,0.113067627,-0.126327515,-1.245193481,38.81242371,15.08612061,-73.43457031
0,43:48.4,0:39,60,0,43:51.5,1540932231,-0.376849811,0.244706687,0.298092148,0.146469116,-0.129440308,-1.223587036,38.70932007,15.33992004,-73.27462769
0,43:48.4,0:39,60,0,43:51.5,1540932232,-0.41475911,0.282361388,0.439501475,0.148529053,-0.087432861,-1.174972534,38.90116882,15.61317444,-73.09788513
0,43:48.4,0:39,60,0,43:51.5,1540932232,-0.456631992,0.19105784,0.381572395,0.120498657,-0.022659302,-1.159698486,39.28767395,15.45954895,-72.92645264
0,43:48.4,0:39,60,0,43:51.5,1540932232,-0.378324936,-0.047885501,0.170299032,0.081130981,0.013778687,-1.175979614,39.32177734,15.60838318,-72.84101868
0,43:48.4,0:39,60,0,43:51.6,1540932232,-0.216898492,-0.202072408,-0.067661336,0.046401978,0.012054443,-1.147323608,39.32177734,15.60838318,-72.84101868
0,43:48.4,0:39,60,0,43:51.6,1540932232,-0.045010352,-0.130560407,-0.241094109,0.029220581,-0.02571106,-1.060211182,39.25993347,15.62059021,-72.84391785
0,43:48.4,0:39,60,0,43:51.6,1540932232,0.107998905,0.08139073,-0.326538437,0.029495239,-0.090911865,-0.977249146,39.19874573,15.63285828,-72.76872253
0,43:48.4,0:39,60,0,43:51.6,1540932232,0.199682753,0.305314108,-0.283449822,0.07270813,-0.160614014,-0.917861938,39.16792297,15.48435974,-72.46369934
0,43:48.4,0:39,60,0,43:51.6,1540932232,0.200218049,0.412570258,-0.058436679,0.139938354,-0.235183716,-0.893371582,39.61300659,15.31819153,-72.67984009
0,43:48.4,0:39,60,0,43:51.6,1540932232,0.094457264,0.350524197,0.293825764,0.167785645,-0.300369263,-0.87953186,39.83981323,15.03996277,-72.83399963
0,43:48.4,0:39,60,0,43:51.7,1540932232,-0.081734012,0.195161238,0.619218509,0.146759033,-0.318359375,-0.852905273,39.83981323,15.03996277,-72.83399963
0,43:48.4,0:39,60,0,43:51.7,1540932232,-0.286515653,-0.012236426,0.772145209,0.092483521,-0.281997681,-0.820709229,39.99705505,14.85508728,-72.20783997
0,43:48.4,0:39,60,0,43:51.7,1540932232,-0.453663366,-0.179354578,0.769837579,0.030395508,-0.225738525,-0.795913696,40.13804626,15.05970764,-72.42674255
0,43:48.4,0:39,60,0,43:51.7,1540932232,-0.534331315,-0.253954514,0.6851669,-0.024749756,-0.183059692,-0.795333862,40.03491211,15.31352234,-72.26675415
0,43:48.4,0:39,60,0,43:51.7,1540932232,-0.488298575,-0.213819878,0.545993297,-0.061645508,-0.149398804,-0.815292358,40.17784119,15.51835632,-72.25137329
0,43:48.4,0:39,60,0,43:51.7,1540932232,-0.337467784,-0.134611608,0.391850599,-0.081573486,-0.139862061,-0.851852417,40.20687866,15.35745239,-72.17773438
0,43:48.4,0:39,60,0,43:51.8,1540932232,-0.141574975,-0.083966273,0.239803541,-0.080322266,-0.149917603,-0.883666992,40.1734314,15.20869446,-72.18507385
0,43:48.4,0:39,60,0,43:51.8,1540932232,0.045702507,-0.047380565,0.108087589,-0.052154541,-0.203948975,-0.884674072,40.1734314,15.20869446,-72.18507385
0,43:48.4,0:39,60,0,43:51.8,1540932232,0.159627213,0.049183525,0.030006369,-0.052154541,-0.203948975,-0.884674072,40.17668152,15.20901489,-71.79460144
0,43:48.4,0:39,60,0,43:51.8,1540932232,0.209727398,0.206767561,-0.007291469,-0.026596069,-0.233978271,-0.870162964,40.32679749,15.02339172,-72.02754211
0,43:48.4,0:39,60,0,43:51.8,1540932232,0.250097991,0.350195563,0.002513491,0.050811768,-0.277954102,-0.947006226,40.61605835,14.73303223,-72.10066223
0,43:48.4,0:39,60,0,43:51.8,1540932232,0.313835691,0.411029886,0.053974552,0.050811768,-0.277954102,-0.947006226,41.04322815,14.33773804,-72.17018127
0,43:48.4,0:39,60,0,43:51.9,1540932232,0.388059855,0.356031348,0.105290204,0.065719604,-0.287567139,-1.011993408,41.21990967,13.68171692,-72.02891541
0,43:48.4,0:39,60,0,43:51.9,1540932232,0.414653915,0.262890485,0.071972195,0.046386719,-0.262771606,-1.04208374,41.21990967,13.68171692,-72.02891541
0,43:48.4,0:39,60,0,43:51.9,1540932232,0.414653915,0.262890485,0.071972195,0.046386719,-0.262771606,-1.04208374,41.52598572,13.31108093,-71.79187012
0,43:48.4,0:39,60,0,43:51.9,1540932232,0.356597004,0.243128498,0.01413526,0.046508789,-0.248443604,-1.073852539,41.62974548,13.05732727,-71.87371826
0,43:48.4,0:39,60,0,43:51.9,1540932232,0.280754703,0.028667598,0.001038633,0.078201294,-0.227844238,-1.080154419,41.90289307,12.84724426,-72.17892456
0,43:48.4,0:39,60,0,43:51.9,1540932232,0.280754703,0.028667598,0.001038633,0.078201294,-0.227844238,-1.080154419,41.77610779,12.56211853,-71.96226501
0,43:48.4,0:39,60,0,43:52.0,1540932232,0.134078443,0.004343882,-0.055711732,0.045501709,-0.184753418,-0.946716309,41.91333008,12.4571228,-72.03678894
0,43:48.4,0:39,60,0,43:52.0,1540932232,-0.3159055,0.066221897,-0.384281628,0.046020508,-0.197982788,-1.011474609,41.91333008,12.4571228,-72.03678894
0,43:48.4,0:39,60,0,43:52.0,1540932232,-0.3159055,0.066221897,-0.384281628,0.046020508,-0.197982788,-1.011474609,41.9017334,12.53788757,-71.72216797
0,43:48.4,0:39,60,0,43:52.0,1540932232,-0.915455233,-0.276132521,-0.15646604,0.101867676,-0.307922363,-1.140991211,41.87968445,13.00874329,-71.54969788
0,43:48.4,0:39,60,0,43:52.0,1540932232,-1.049783747,-0.25966007,0.103806025,0.085525513,-0.311584473,-1.205032349,41.63021851,13.75779724,-71.3012085
0,43:48.4,0:39,60,0,43:52.0,1540932232,-1.049783747,-0.25966007,0.103806025,0.034454346,-0.247253418,-1.268692017,41.66807556,14.21626282,-71.36013794
0,43:48.4,0:39,60,0,43:52.1,1540932232,-0.709592348,-0.03762727,0.29354054,-0.02911377,-0.157577515,-1.285064697,41.87347412,14.40895081,-71.26373291
0,43:48.4,0:39,60,0,43:52.1,1540932232,-0.709592348,-0.03762727,0.29354054,-0.02911377,-0.157577515,-1.285064697,41.87347412,14.40895081,-71.26373291
0,43:48.4,0:39,60,0,43:52.1,1540932232,-0.564548339,0.135085384,0.302285562,-0.041824341,0.026428223,-1.181716919,41.77606201,14.97257996,-71.01385498
0,43:48.4,0:39,60,0,43:52.1,1540932232,-0.12751455,0.219837556,-0.031823976,-0.073318481,0.085205078,-1.198608398,41.96353149,14.93614197,-70.77084351
0,43:48.4,0:39,60,0,43:52.1,1540932232,-0.12751455,0.219837556,-0.031823976,-0.073318481,0.085205078,-1.198608398,41.9672699,15.24578857,-70.91523743
0,43:48.4,0:39,60,0,43:52.1,1540932232,0.460270935,0.025072863,-0.612612805,-0.098342896,0.05708313,-1.081756592,42.00854492,15.00416565,-71.07810974
0,43:48.4,0:39,60,0,43:52.2,1540932232,0.445420617,-0.014277207,-0.744373765,-0.068572998,-0.007446289,-0.96697998,41.94361877,14.70681763,-70.85853577
0,43:48.4,0:39,60,0,43:52.2,1540932232,0.445420617,-0.014277207,-0.744373765,-0.022171021,-0.072555542,-0.908569336,41.92192078,14.1680603,-70.56752014
0,43:48.4,0:39,60,0,43:52.2,1540932232,0.255152404,-0.164030483,-0.705961661,0.004257202,-0.123046875,-0.878067017,41.92192078,14.1680603,-70.56752014
0,43:48.4,0:39,60,0,43:52.2,1540932232,0.131284254,-0.197770071,-0.626729689,0.018432617,-0.154403687,-0.844512939,41.72090149,14.28504944,-70.73022461
0,43:48.4,0:39,60,0,43:52.2,1540932232,0.131284254,-0.197770071,-0.626729689,0.026672363,-0.18309021,-0.818466187,41.54896545,14.24113464,-70.8192749
0,43:48.4,0:39,60,0,43:52.2,1540932232,-0.18595256,-0.24210398,-0.409323066,0.037338257,-0.207931519,-0.82611084,41.21138,14.46316528,-70.82937622
0,43:48.4,0:39,60,0,43:52.3,1540932232,-0.308594857,-0.361413863,-0.302354538,0.036010742,-0.224395752,-0.862060547,41.21072388,14.46310425,-70.9074707
0,43:48.4,0:39,60,0,43:52.3,1540932232,-0.405834591,-0.474413652,-0.211447267,0.029067993,-0.22946167,-0.884185791,40.85961914,14.76570129,-70.83724976
0,43:48.4,0:39,60,0,43:52.3,1540932232,-0.431626241,-0.507991586,-0.137593017,0.016036987,-0.220870972,-0.900283813,40.85961914,14.76570129,-70.83724976
0,43:48.4,0:39,60,0,43:52.3,1540932232,-0.356967982,-0.407255388,-0.082872779,0.000778198,-0.196289063,-0.915359497,40.53689575,14.90730286,-70.77146912
0,43:48.4,0:39,60,0,43:52.3,1540932232,-0.189317997,-0.296407166,-0.075280373,-0.010147095,-0.17074585,-0.955352783,40.37062073,15.17320251,-70.77059937
0,43:48.4,0:39,60,0,43:52.3,1540932232,-0.013083045,-0.183246788,-0.125513717,-0.015625,-0.148284912,-0.981521606,40.30879211,15.18540955,-70.77351379
0,43:48.4,0:39,60,0,43:52.4,1540932232,0.096021072,-0.150434247,-0.207955863,-0.009002686,-0.128997803,-0.994781494,40.10716248,15.30235291,-71.01431274
0,43:48.4,0:39,60,0,43:52.4,1540932232,0.221493776,-0.176078624,-0.317245603,0.005081177,-0.115646362,-1.017730713,40.2677002,14.72662354,-71.10507202
0,43:48.4,0:39,60,0,43:52.4,1540932232,0.405082514,-0.179729818,-0.385829458,0.020339966,-0.115753174,-1.038391113,40.2677002,14.72662354,-71.10507202
0,43:48.4,0:39,60,0,43:52.4,1540932232,0.647182766,-0.122415129,-0.423297205,0.010269165,-0.142074585,-1.049758911,40.02101135,14.77554321,-71.03862
0,43:48.4,0:39,60,0,43:52.4,1540932232,0.787862386,0.039446209,-0.395289006,-0.001586914,-0.179412842,-1.009628296,40.07208252,14.14373779,-71.1374054
0,43:48.4,0:39,60,0,43:52.4,1540932232,0.844734458,0.283868737,-0.255789166,0.01550293,-0.209503174,-0.98777771,40.28025818,13.63630676,-71.22303772
0,43:48.4,0:39,60,0,43:52.5,1540932232,0.859365865,0.321766585,-0.030864972,0.064804077,-0.194854736,-1.07244873,40.55815125,12.72628784,-71.47599792
0,43:48.4,0:39,60,0,43:52.5,1540932232,0.690182964,0.172871113,0.012897423,0.069824219,-0.181228638,-1.070770264,40.55815125,12.72628784,-71.47599792
0,43:48.4,0:39,60,0,43:52.5,1540932233,0.368322103,0.039621978,0.026731746,0.055892944,-0.191116333,-1.041900635,40.82817078,12.20661926,-71.55871582
0,43:48.4,0:39,60,0,43:52.5,1540932233,-0.060852432,0.045767489,0.061110226,0.026809692,-0.226608276,-1.010391235,40.85656738,12.04563904,-71.56315613
0,43:48.4,0:39,60,0,43:52.5,1540932233,-0.547561899,0.234815973,0.206026936,0.034973145,-0.240005493,-0.996307373,40.99754333,12.25028992,-71.78205872
0,43:48.4,0:39,60,0,43:52.6,1540932233,-0.835393953,0.40424282,0.452603428,0.076599121,-0.226516724,-1.050064087,41.35417175,12.95791626,-71.26795959
0,43:48.4,0:39,60,0,43:52.6,1540932233,-0.848400299,0.319995583,0.724501523,0.131896973,-0.182220459,-1.195648193,41.71734619,13.27502441,-71.08026123
0,43:48.4,0:39,60,0,43:52.6,1540932233,-0.737276973,0.066331353,0.869799065,0.150939941,-0.098190308,-1.275527954,41.71734619,13.27502441,-71.08026123
0,43:48.4,0:39,60,0,43:52.6,1540932233,-0.647754813,-0.185097153,0.778444117,0.104980469,-0.002151489,-1.237808228,41.88342285,13.70953369,-70.58670044
0,43:48.4,0:39,60,0,43:52.6,1540932233,-0.684114152,-0.427795284,0.429052562,-0.03086853,0.137817383,-1.076431274,41.96125793,13.92625427,-70.96469116
0,43:48.4,0:39,60,0,43:52.6,1540932233,-0.746260881,-0.636270463,-0.031660192,-0.048034668,0.129013062,-1.025146484,41.78210449,14.27278137,-70.80543518
0,43:48.4,0:39,60,0,43:52.7,1540932233,-0.71740846,-0.681570035,-0.403312045,-0.025466919,0.076095581,-0.975494385,41.57521057,14.78033447,-70.56359863
0,43:48.4,0:39,60,0,43:52.7,1540932233,-0.620710146,-0.529378634,-0.556280822,0.032211304,0.007949829,-0.941177368,40.9811554,15.44148254,-70.57128906
0,43:48.4,0:39,60,0,43:52.7,1540932233,-0.483020723,-0.231351467,-0.491694638,0.087524414,-0.05921936,-0.919799805,40.96890259,15.52215576,-70.33477783
0,43:48.4,0:39,60,0,43:52.7,1540932233,-0.379853058,0.132338334,-0.265319021,0.116622925,-0.102798462,-0.897827148,40.96890259,15.52215576,-70.33477783
0,43:48.4,0:39,60,0,43:52.7,1540932233,-0.310149876,0.417353295,-0.029394641,0.120422363,-0.116928101,-0.913864136,41.07969666,15.57836914,-70.17056274
0,43:48.4,0:39,60,0,43:52.7,1540932233,-0.281021286,0.406803715,0.104443053,0.106018066,-0.112258911,-0.941299438,41.33842468,16.14915466,-69.97911072
0,43:48.4,0:39,60,0,43:52.8,1540932233,-0.265724355,0.137263317,0.122311532,0.086959839,-0.119949341,-0.939987183,41.50845337,16.19288635,-70.12434387
0,43:48.4,0:39,60,0,43:52.8,1540932233,-0.255323113,-0.206792594,0.122955484,0.062057495,-0.143600464,-0.89213562,41.39178467,16.52726746,-69.88406372
0,43:48.4,0:39,60,0,43:52.8,1540932233,-0.305831028,-0.497740547,0.242545266,0.027099609,-0.161651611,-0.837036133,41.50256348,16.58346558,-69.71981812
0,43:48.4,0:39,60,0,43:52.8,1540932233,-0.239391018,-0.369962344,0.31657635,-0.012802124,-0.164825439,-0.807861328,41.24101257,16.71279907,-69.72924805
0,43:48.4,0:39,60,0,43:52.8,1540932233,-0.112482337,-0.104147175,0.347928681,-0.045822144,-0.151916504,-0.79850769,41.24101257,16.71279907,-69.72924805
0,43:48.4,0:39,60,0,43:52.8,1540932233,0.052618471,0.175542263,0.334312737,-0.074325562,-0.134735107,-0.811325073,41.30479431,16.70077515,-69.49203491
0,43:48.4,0:39,60,0,43:52.9,1540932233,0.214884343,0.367854186,0.269188328,-0.08694458,-0.12739563,-0.852294922,41.59913635,16.72015381,-69.55337524
0,43:48.4,0:39,60,0,43:52.9,1540932233,0.366679199,0.44157661,0.132172419,-0.097366333,-0.122619629,-0.911605835,42.03004456,16.63447571,-69.76728821
0,43:48.4,0:39,60,0,43:52.9,1540932233,0.438782155,0.451180235,-0.008115983,-0.084793091,-0.120788574,-0.948104858,42.4770813,16.46850586,-69.74916077
0,43:48.4,0:39,60,0,43:52.9,1540932233,0.43255675,0.45141992,-0.053090383,-0.050796509,-0.139328003,-0.964981079,42.82949829,16.16604614,-69.66319275
0,43:48.4,0:39,60,0,43:52.9,1540932233,0.411468242,0.465439066,0.007971107,0.001358032,-0.163574219,-0.995391846,42.82949829,16.16604614,-69.66319275
0,43:48.4,0:39,60,0,43:52.9,1540932233,0.415803868,0.501752333,0.112959309,0.027648926,-0.183303833,-1.035110474,43.20901489,15.70245361,-69.737854
0,43:48.4,0:39,60,0,43:53.0,1540932233,0.411890087,0.555484803,0.20940409,0.039001465,-0.186416626,-1.078308105,43.59291077,15.54856873,-69.87882996
0,43:48.4,0:39,60,0,43:53.0,1540932233,0.405170399,0.63858475,0.271618196,0.040710449,-0.162521362,-1.110626221,44.0244751,15.46296692,-70.0146637
0,43:48.4,0:39,60,0,43:53.0,1540932233,0.460478928,0.681438208,0.241673613,0.028686523,-0.115982056,-1.161071777,44.54508972,14.89480591,-69.69525146
0,43:48.4,0:39,60,0,43:53.0,1540932233,0.489161972,0.671981057,0.103513876,0.00541687,-0.072006226,-1.210830688,45.04957581,14.40693665,-69.60792542
0,43:48.4,0:39,60,0,43:53.0,1540932233,0.338588442,0.543267019,-0.07544256,-0.002731323,-0.059326172,-1.21585083,45.04957581,14.40693665,-69.60792542
0,43:48.4,0:39,60,0,43:53.0,1540932233,0.008151137,0.235749145,-0.279206075,-0.004684448,-0.081253052,-1.227828979,45.485672,14.32177734,-69.19706726
0,43:48.4,0:39,60,0,43:53.1,1540932233,-0.343145643,-0.146396628,-0.433796984,0.023574829,-0.095153809,-1.262283325,45.79289246,14.26052856,-69.41682434
0,43:48.4,0:39,60,0,43:53.1,1540932233,-0.554905832,-0.350882925,-0.451132032,0.066970825,-0.102752686,-1.30166626,45.70837402,14.74354553,-69.32536316
0,43:48.4,0:39,60,0,43:53.1,1540932233,-0.607631095,-0.303617142,-0.243313854,0.123825073,-0.102218628,-1.30921936,45.42414856,15.34368896,-69.24041748
0,43:48.4,0:39,60,0,43:53.1,1540932233,-0.472734529,-0.153244681,-0.033271937,0.139373779,-0.062332153,-1.298049927,45.40213013,15.81455994,-69.06796265
0,43:48.4,0:39,60,0,43:53.1,1540932233,-0.215847875,-0.081143589,-0.017181916,0.082702637,0.019546509,-1.297073364,45.28039551,15.83917236,-68.8394928
0,43:48.4,0:39,60,0,43:53.1,1540932233,0.083066391,-0.076679066,-0.228208138,0.02935791,0.119140625,-1.219833374,45.28039551,15.83917236,-68.8394928
0,43:48.4,0:39,60,0,43:53.2,1540932233,0.083066391,-0.076679066,-0.228208138,-0.001678467,0.149398804,-1.129302979,45.36802673,15.66572571,-69.15342712
0,43:48.4,0:39,60,0,43:53.2,1540932233,0.319175596,-0.306310131,-0.712577752,-0.010620117,0.106246948,-1.013549805,45.33964539,15.82672119,-69.14897156
0,43:48.4,0:39,60,0,43:53.2,1540932233,0.208544155,-0.417555696,-0.757664536,0.013778687,0.022018433,-0.92199707,44.83074951,16.00489807,-69.17002869
0,43:48.4,0:39,60,0,43:53.2,1540932233,0.053103965,-0.446635817,-0.685915248,0.039321899,-0.064727783,-0.863113403,44.51832581,16.06562805,-69.57505798
0,43:48.4,0:39,60,0,43:53.2,1540932233,-0.07042623,-0.4351267,-0.56272221,0.050872803,-0.127822876,-0.835220337,44.23947144,15.96588135,-69.35975647
0,43:48.4,0:39,60,0,43:53.2,1540932233,-0.18208059,-0.388154131,-0.410575018,0.092514038,-0.14302063,-0.822235107,44.23947144,15.96588135,-69.35975647
0,43:48.4,0:39,60,0,43:53.3,1540932233,-0.302292752,-0.351949788,-0.249872155,0.121871948,-0.139556885,-0.810455322,44.02752686,16.16369629,-69.12976074
0,43:48.4,0:39,60,0,43:53.3,1540932233,-0.443207796,-0.385842773,-0.091392498,0.128845215,-0.134521484,-0.812057495,43.81430054,16.36135864,-69.05593872
0,43:48.4,0:39,60,0,43:53.3,1540932233,-0.443207796,-0.385842773,-0.091392498,0.100082397,-0.130935669,-0.823059082,43.69567871,16.69554138,-69.04994202
0,43:48.4,0:39,60,0,43:53.3,1540932233,-0.645863702,-0.486104397,0.042390334,0.055511475,-0.10987854,-0.82434082,43.26002502,17.4811554,-68.88825989
0,43:48.4,0:39,60,0,43:53.3,1540932233,-0.599720708,-0.410693262,0.00713381,0.002227783,-0.085861206,-0.839736938,43.43069458,17.52493286,-68.95541382
0,43:48.4,0:39,60,0,43:53.3,1540932233,-0.392968594,-0.192931107,-0.037623542,-0.039154053,-0.068222046,-0.869171143,43.43069458,17.52493286,-68.95541382
0,43:48.4,0:39,60,0,43:53.4,1540932233,-0.088802041,0.059717659,-0.114487165,-0.059249878,-0.050125122,-0.908279419,43.34112549,17.69821167,-68.87576294
0,43:48.4,0:39,60,0,43:53.4,1540932233,0.160164638,0.270769181,-0.205310013,-0.054046631,-0.034942627,-0.928878784,43.38241577,17.45661926,-69.03865051
0,43:48.4,0:39,60,0,43:53.4,1540932233,0.285274886,0.325030289,-0.280233523,-0.01802063,-0.03918457,-0.939971924,43.77462769,17.61280823,-68.77731323
0,43:48.4,0:39,60,0,43:53.4,1540932233,0.307444637,0.211364177,-0.309292338,0.018981934,-0.067077637,-0.962890625,44.02261353,17.56402588,-68.68759155
0,43:48.4,0:39,60,0,43:53.4,1540932233,0.287665606,0.023268305,-0.288102365,0.05267334,-0.098510742,-0.983779907,44.01820374,17.2543335,-68.62130737
0,43:48.4,0:39,60,0,43:53.4,1540932233,0.282014112,-0.11424748,-0.236869271,0.061630249,-0.127990723,-0.996551514,44.01820374,17.2543335,-68.62130737
0,43:48.4,0:39,60,0,43:53.5,1540932233,0.290750612,-0.179459241,-0.17912528,0.051528931,-0.147583008,-0.995697021,44.0664978,17.32267761,-68.53807068
0,43:48.4,0:39,60,0,43:53.5,1540932233,0.305812652,-0.129102326,-0.095539573,0.052764893,-0.179885864,-0.97265625,44.02540588,16.86387634,-68.86959839
0,43:48.4,0:39,60,0,43:53.5,1540932233,0.286837896,0.020733774,0.077058566,0.052764893,-0.179885864,-0.97265625,44.13487244,16.91995239,-68.86157227
0,43:48.4,0:39,60,0,43:53.5,1540932234,0.253302572,0.094769919,0.306322381,0.106292725,-0.190734863,-0.987030029,44.45890808,16.77848816,-68.77114868
0,43:48.4,0:39,60,0,43:53.5,1540932234,0.1866061,0.020751085,0.583600328,0.195983887,-0.197677612,-1.056640625,44.64376831,16.74177551,-68.84051514
0,43:48.4,0:39,60,0,43:53.5,1540932234,0.019615779,-0.067421918,0.854459789,0.195983887,-0.197677612,-1.056640625,44.87120056,16.46359253,-68.91656494
0,43:48.4,0:39,60,0,43:53.6,1540932234,-0.277893669,-0.164579893,0.980773254,0.18359375,-0.162322998,-1.023284912,44.87120056,16.46359253,-68.91656494
0,43:48.4,0:39,60,0,43:53.6,1540932234,-0.646439478,-0.227986563,0.951870499,0.071670532,-0.099304199,-1.041931152,45.07351685,16.34672546,-68.59770203
0,43:48.4,0:39,60,0,43:53.6,1540932234,-0.952152261,-0.11890455,0.914598494,0.071670532,-0.099304199,-1.041931152,45.39033508,16.59570313,-68.25894165
0,43:48.4,0:39,60,0,43:53.6,1540932234,-1.068003231,0.234640737,0.957896966,0.081756592,0.010375977,-1.142684937,45.80491638,17.29072571,-68.21051025
0,43:48.4,0:39,60,0,43:53.6,1540932234,-0.922311541,0.734376524,1.141595693,0.112091064,0.077468872,-1.223617554,46.64677429,17.28118896,-67.61865234
0,43:48.4,0:39,60,0,43:53.6,1540932234,-0.698544491,1.018144062,1.31965491,0.112091064,0.077468872,-1.223617554,47.79782104,17.21063232,-67.01225281
0,43:48.4,0:39,60,0,43:53.7,1540932234,-0.526819869,0.875113403,1.242335087,0.017654419,0.261886597,-1.352523804,47.79782104,17.21063232,-67.01225281
0,43:48.4,0:39,60,0,43:53.7,1540932234,-0.360315575,0.44993787,0.86803978,-0.053451538,0.313705444,-1.322723389,48.40457153,17.16926575,-66.66854858
0,43:48.4,0:39,60,0,43:53.7,1540932234,-0.191882887,0.066701799,0.279623392,-0.053451538,0.313705444,-1.322723389,48.56298828,17.29374695,-66.49919128
0,43:48.4,0:39,60,0,43:53.7,1540932234,0.018461565,-0.026855316,-0.360917983,-0.069381714,0.254882813,-1.121017456,48.72206116,17.41828918,-66.25170898
0,43:48.4,0:39,60,0,43:53.7,1540932234,0.559510704,0.415652335,-0.879870341,0.043579102,0.129318237,-1.050445557,48.81668091,17.55477905,-66.31954956
0,43:48.4,0:39,60,0,43:53.7,1540932234,0.559510704,0.415652335,-0.879870341,0.164794922,-0.004119873,-0.974914551,49.08018494,17.42564392,-66.07583618
0,43:48.4,0:39,60,0,43:53.8,1540932234,0.706440763,0.736533685,-0.602156701,0.243011475,-0.119949341,-0.92527771,49.08018494,17.42564392,-66.07583618
0,43:48.4,0:39,60,0,43:53.8,1540932234,0.574014546,0.763491,0.277085932,0.253005981,-0.175857544,-0.909179688,49.58335876,16.93765259,-66.1446991
0,43:48.4,0:39,60,0,43:53.8,1540932234,0.574014546,0.763491,0.277085932,0.197998047,-0.158859253,-0.906723022,50.07429504,16.53031921,-65.97705078
0,43:48.4,0:39,60,0,43:53.8,1540932234,0.386770619,0.409839186,0.446961788,0.123291016,-0.119186401,-0.879745483,50.66116333,16.25964355,-65.7210083
0,43:48.4,0:39,60,0,43:53.8,1540932234,0.04012425,-0.251496416,0.314513466,0.06288147,-0.093688965,-0.843185425,50.69589233,16.40853882,-65.55747986
0,43:48.4,0:39,60,0,43:53.8,1540932234,0.04012425,-0.251496416,0.314513466,0.026275635,-0.086257935,-0.809112549,50.73652649,16.16685486,-65.7984314
0,43:48.4,0:39,60,0,43:53.9,1540932234,0.029703834,-0.282004791,0.124935811,0.013427734,-0.10244751,-0.802459717,50.90344238,15.90104675,-65.72119141
0,43:48.4,0:39,60,0,43:53.9,1540932234,0.079192557,-0.290038216,0.121701402,0.025985718,-0.129394531,-0.82598877,50.90344238,15.90104675,-65.72119141
0,43:48.4,0:39,60,0,43:53.9,1540932234,0.079192557,-0.290038216,0.121701402,0.040328979,-0.153091431,-0.846878052,51.06187439,16.0255127,-65.55183411
0,43:48.4,0:39,60,0,43:53.9,1540932234,0.020878384,-0.308131467,0.188086551,0.043365479,-0.167175293,-0.850585938,51.27886963,16.13746643,-65.77001953
0,43:48.4,0:39,60,0,43:53.9,1540932234,0.020878384,-0.308131467,0.188086551,0.039581299,-0.170333862,-0.867965698,51.09205627,16.17396545,-65.93495178
0,43:48.4,0:39,60,0,43:53.9,1540932234,-0.041260887,-0.29784767,0.199893676,0.023239136,-0.157455444,-0.899536133,51.34069824,16.12524414,-65.7671051
0,43:48.4,0:39,60,0,43:54.0,1540932234,-0.121705663,-0.242600926,0.10146191,0.0105896,-0.140136719,-0.949234009,51.57319641,16.15682983,-65.8313446
0,43:48.4,0:39,60,0,43:54.0,1540932234,-0.121705663,-0.242600926,0.10146191,-0.001419067,-0.127578735,-1.006835938,51.57319641,16.15682983,-65.8313446
0,43:48.4,0:39,60,0,43:54.0,1540932234,0.034470093,0.093460709,0.077209035,0.006011963,-0.115386963,-1.06388855,51.73095703,16.28125,-65.74008179
0,43:48.4,0:39,60,0,43:54.0,1540932234,0.240066662,0.429872549,0.117196399,0.029586792,-0.09046936,-1.120895386,51.91842651,16.24481201,-65.49707031
0,43:48.4,0:39,60,0,43:54.0,1540932234,0.240066662,0.429872549,0.117196399,0.045547485,-0.071517944,-1.19128418,52.81756592,16.22264099,-65.44897461
0,43:48.4,0:39,60,0,43:54.0,1540932234,0.416721594,0.488742791,0.118297349,0.075515747,-0.053878784,-1.230667114,53.26591492,16.05677795,-65.27464294
0,43:48.4,0:39,60,0,43:54.1,1540932234,0.21219242,0.26372219,0.079517995,0.094696045,-0.047195435,-1.212341309,53.58015442,16.30549622,-65.24829102
0,43:48.4,0:39,60,0,43:54.1,1540932234,0.21219242,0.26372219,0.079517995,0.055603027,-0.043182373,-1.193527222,53.58015442,16.30549622,-65.24829102
0,43:48.4,0:39,60,0,43:54.1,1540932234,-0.363369689,-0.356544539,-0.306618791,-0.006210327,-0.033370972,-1.205123901,53.7114563,16.59107971,-64.91828918
0,43:48.4,0:39,60,0,43:54.1,1540932234,-0.472672744,-0.456682592,-0.427723378,-0.002838135,-0.017074585,-1.203186035,53.74362183,16.73973083,-65.06712341
0,43:48.4,0:39,60,0,43:54.1,1540932234,-0.390222875,-0.418827355,-0.354877933,0.031341553,-0.025863647,-1.217956543,53.56690979,17.39575195,-65.2084198
0,43:48.4,0:39,60,0,43:54.1,1540932234,-0.226478681,-0.240412873,-0.194068011,0.05519104,-0.033752441,-1.211624146,53.63821411,18.00299072,-65.25997925
0,43:48.4,0:39,60,0,43:54.2,1540932234,-0.051575843,-0.020610204,-0.131729002,0.025634766,-0.000457764,-1.171142578,53.76824951,18.28846741,-65.08616638
0,43:48.4,0:39,60,0,43:54.2,1540932234,0.107495035,0.164233949,-0.215066503,-0.016113281,0.114425659,-1.072189331,53.8364563,18.58612061,-64.91526794
0,43:48.4,0:39,60,0,43:54.2,1540932234,0.223144936,0.199502457,-0.386388721,-0.016113281,0.114425659,-1.072189331,53.8364563,18.58612061,-64.91526794
0,43:48.4,0:39,60,0,43:54.2,1540932234,0.305458185,0.1637647,-0.572782567,-0.01789856,0.123123169,-1.026687622,54.02503967,18.85905457,-65.12901306
0,43:48.4,0:39,60,0,43:54.2,1540932234,0.342888116,0.090177298,-0.653196983,-0.003250122,0.082122803,-0.975708008,54.16992188,19.06410217,-64.8793335
0,43:48.4,0:39,60,0,43:54.2,1540932234,0.285798464,0.081943869,-0.621067542,0.022338867,0.02192688,-0.918106079,54.05375671,19.70776367,-65.17390442
0,43:48.4,0:39,60,0,43:54.3,1540932234,0.142825329,0.148908788,-0.52457296,0.064315796,-0.050567627,-0.831756592,54.18379211,19.99325562,-65.00009155
0,43:48.4,0:39,60,0,43:54.3,1540932234,-0.012264123,0.162974007,-0.423857268,0.064315796,-0.050567627,-0.831756592,54.20173645,20.22238159,-65.14668274
0,43:48.4,0:39,60,0,43:54.3,1540932234,-0.14592658,0.095828526,-0.352160177,0.073928833,-0.062332153,-0.851074219,54.20173645,20.22238159,-65.14668274
0,43:48.4,0:39,60,0,43:54.3,1540932234,-0.235944088,-0.046225552,-0.315904435,0.065124512,-0.058822632,-0.890945435,54.04118347,20.7980957,-65.05593872
0,43:48.4,0:39,60,0,43:54.3,1540932234,-0.296692391,-0.221966221,-0.310752283,0.065124512,-0.058822632,-0.890945435,54.03138733,21.1882782,-65.11999512
0,43:48.4,0:39,60,0,43:54.3,1540932234,-0.338448892,-0.398927949,-0.316314828,0.060348511,-0.053527832,-0.891662598,53.75662231,22.40788269,-65.08953857
0,43:48.4,0:39,60,0,43:54.4,1540932234,-0.359713435,-0.531680404,-0.336819837,0.029449463,-0.053512573,-0.865966797,53.67276001,22.89096069,-64.91999817
0,43:48.4,0:39,60,0,43:54.4,1540932234,-0.32999522,-0.522046952,-0.382862164,0.029449463,-0.053512573,-0.865966797,53.22247314,23.05661011,-65.32862854
0,43:48.4,0:39,60,0,43:54.4,1540932234,-0.193628057,-0.387953329,-0.433060087,0.018417358,-0.071807861,-0.868988037,53.22247314,23.05661011,-65.32862854
0,43:48.4,0:39,60,0,43:54.4,1540932234,-0.012217784,-0.165762869,-0.442467437,0.044692993,-0.101028442,-0.884902954,52.84603882,23.82974243,-65.47642517
0,43:48.4,0:39,60,0,43:54.4,1540932234,0.149967395,0.043414319,-0.397272262,0.044692993,-0.101028442,-0.884902954,52.77313232,24.23200989,-65.69960022
0,43:48.4,0:39,60,0,43:54.4,1540932234,0.23557817,0.19473966,-0.30715382,0.110183716,-0.132461548,-0.943984985,52.90626526,24.82704163,-65.7482605
0,43:48.4,0:39,60,0,43:54.5,1540932234,0.249279868,0.216923526,-0.207539611,0.122406006,-0.131988525,-0.993515015,52.65045166,25.26620483,-65.66775513
0,43:48.4,0:39,60,0,43:54.5,1540932234,0.227171103,0.124950458,-0.145537759,0.122406006,-0.131988525,-0.993515015,52.52610779,25.29055786,-65.75167847
0,43:48.4,0:39,60,0,43:54.5,1540932234,0.215601799,0.021175593,-0.132812643,0.099151611,-0.108337402,-1.051147461,52.52610779,25.29055786,-65.75167847
0,43:48.4,0:39,60,0,43:54.5,1540932235,0.304193717,0.247381833,-0.112208564,0.087783813,-0.09286499,-1.061096191,52.38499451,25.3951416,-66.14576721
0,43:48.4,0:39,60,0,43:54.5,1540932235,0.304193717,0.247381833,-0.112208564,0.090530396,-0.08732605,-1.120132446,52.4079895,25.93406677,-66.28057861
0,43:48.4,0:39,60,0,43:54.5,1540932235,0.507947378,0.512240926,-0.026261964,0.104629517,-0.070236206,-1.183273315,52.66629028,25.80439758,-66.66163635
0,43:48.4,0:39,60,0,43:54.6,1540932235,1.197639521,1.231562867,0.199340271,0.101913452,-0.044586182,-1.232543945,52.97547913,25.74333191,-66.64709473
0,43:48.4,0:39,60,0,43:54.6,1540932235,1.197639521,1.231562867,0.199340271,0.065597534,-0.046417236,-1.220214844,53.55467224,25.16262817,-66.715271
0,43:48.4,0:39,60,0,43:54.6,1540932235,1.350807237,1.589191313,0.198673682,0.078155518,-0.061737061,-1.18321228,54.43586731,24.91131592,-66.52055359
0,43:48.4,0:39,60,0,43:54.6,1540932235,1.255494832,1.762146315,0.182847048,0.078155518,-0.061737061,-1.18321228,54.43586731,24.91131592,-66.52055359
0,43:48.4,0:39,60,0,43:54.6,1540932235,1.195437353,1.526218739,0.090476371,0.201431274,-0.13835144,-1.223068237,55.10969543,24.46711731,-66.65657043
0,43:48.4,0:39,60,0,43:54.6,1540932235,0.57448486,-0.001500425,0.07803275,0.292694092,-0.173553467,-1.144851685,55.35003662,24.10832214,-66.89102173
0,43:48.4,0:39,60,0,43:54.7,1540932235,-0.293938948,-0.686067581,0.24552268,0.352310181,-0.174728394,-1.004241943,55.0802002,23.92758179,-67.30271912
0,43:48.4,0:39,60,0,43:54.7,1540932235,-0.293938948,-0.686067581,0.24552268,0.374755859,-0.123352051,-0.891540527,54.62207031,24.48361206,-67.54112244
0,43:48.4,0:39,60,0,43:54.7,1540932235,-1.626271304,-0.896213095,0.546496368,0.36390686,-0.029541016,-0.906692505,54.01576233,25.22541809,-67.31231689
0,43:48.4,0:39,60,0,43:54.7,1540932235,-1.626271304,-0.896213095,0.546496368,0.313079834,0.051116943,-1.020812988,54.01576233,25.22541809,-67.31231689
0,43:48.4,0:39,60,0,43:54.7,1540932235,-1.594889146,-0.798336333,0.608719529,0.233261108,0.116256714,-1.135772705,53.79208374,25.81321716,-67.38066101
0,43:48.4,0:39,60,0,43:54.7,1540932235,-0.492919959,-0.893638617,0.157503874,0.156600952,0.141799927,-1.173980713,53.28108215,26.69160461,-67.14157104
0,43:48.4,0:39,60,0,43:54.8,1540932235,-0.492919959,-0.893638617,0.157503874,0.108718872,0.110900879,-1.076843262,52.55308533,27.06689453,-67.79168701
0,43:48.4,0:39,60,0,43:54.8,1540932235,-0.084890657,-0.996422521,-0.273207571,0.106109619,0.032608032,-0.915405273,51.81416321,27.52296448,-68.04905701
0,43:48.4,0:39,60,0,43:54.8,1540932235,-0.219547006,-0.833252771,-0.181950628,0.133529663,-0.056259155,-0.7890625,50.98777771,27.45211792,-68.48693848
0,43:48.4,0:39,60,0,43:54.8,1540932235,-0.219547006,-0.833252771,-0.181950628,0.157043457,-0.130889893,-0.741226196,50.98777771,27.45211792,-68.48693848
0,43:48.4,0:39,60,0,43:54.8,1540932235,-0.261035061,-0.196894157,0.366054688,0.163848877,-0.161270142,-0.768051147,50.3757782,27.88414001,-68.34803772
0,43:48.4,0:39,60,0,43:54.8,1540932235,-0.058561847,0.066510051,0.548377359,0.139846802,-0.142074585,-0.841629028,50.26939392,28.13761902,-68.5785675
0,43:48.4,0:39,60,0,43:54.9,1540932235,-0.058561847,0.066510051,0.548377359,0.108688354,-0.10899353,-0.875869751,50.27005005,28.13768005,-68.50047302
0,43:48.4,0:39,60,0,43:54.9,1540932235,0.113339076,0.199701395,0.638452658,0.077911377,-0.101364136,-0.889465332,50.39048767,28.1129303,-68.88513184
0,43:48.4,0:39,60,0,43:54.9,1540932235,-0.038361504,0.092129128,0.584813397,0.049880981,-0.099395752,-0.876373291,50.74290466,27.81048584,-68.79916382
0,43:48.4,0:39,60,0,43:54.9,1540932235,-0.220125444,-0.086283756,0.466842285,0.019515991,-0.088317871,-0.880767822,50.5425415,27.92753601,-68.88375854
0,43:48.4,0:39,60,0,43:54.9,1540932235,-0.329576305,-0.204756341,0.332864776,0.002334595,-0.077575684,-0.915176392,50.5425415,27.92753601,-68.88375854
0,43:48.4,0:39,60,0,43:54.9,1540932235,-0.313790684,-0.231536823,0.230025213,-0.004806519,-0.073501587,-0.95640564,50.24430847,27.90777588,-69.29101563
0,43:48.4,0:39,60,0,43:55.0,1540932235,-0.156237009,-0.199279284,0.170058815,-0.006729126,-0.082931519,-1.01423645,50.06515503,28.25430298,-69.13175964
0,43:48.4,0:39,60,0,43:55.0,1540932235,0.09052484,-0.10188269,0.105867844,-0.005813599,-0.089523315,-1.054077148,49.84996033,28.45178223,-69.29222107
0,43:48.4,0:39,60,0,43:55.0,1540932235,0.340442535,-0.010907509,0.017038372,-0.006515503,-0.093536377,-1.076629639,49.44226074,28.37594604,-69.70750427
0,43:48.4,0:39,60,0,43:55.0,1540932235,0.487883389,0.053045109,-0.100713029,-0.005569458,-0.097167969,-1.073898315,49.21694946,27.95391846,-69.89160156
0,43:48.4,0:39,60,0,43:55.0,1540932235,0.478602006,0.030118488,-0.295635915,-0.015838623,-0.110076904,-1.051086426,49.21694946,27.95391846,-69.89160156
0,43:48.4,0:39,60,0,43:55.0,1540932235,0.364759592,-0.138586376,-0.56995722,-0.077224731,-0.04083252,-1.055953979,48.74543762,27.8901062,-70.5440979
0,43:48.4,0:39,60,0,43:55.1,1540932235,0.207261311,-0.175239196,-1.033647654,-0.077224731,-0.04083252,-1.055953979,47.98857117,28.11706543,-70.65486145
0,43:48.4,0:39,60,0,43:55.1,1540932235,0.113692211,-0.158980064,-1.08821902,-0.097839355,-0.088394165,-1.047027588,47.03639221,28.77085876,-70.8384552
0,43:48.4,0:39,60,0,43:55.1,1540932235,0.14464054,-0.061874553,-0.832170729,0.028091431,-0.301956177,-1.162979126,46.30467224,28.83651733,-71.34414673
0,43:48.4,0:39,60,0,43:55.1,1540932235,0.150925334,0.111026121,-0.537471981,0.028091431,-0.301956177,-1.162979126,45.86740112,28.61228943,-71.29824829
0,43:48.4,0:39,60,0,43:55.1,1540932235,-0.019249861,0.239222706,-0.270628299,0.040588379,-0.343566895,-1.146835327,45.53834534,28.44403076,-71.40045166
0,43:48.4,0:39,60,0,43:55.1,1540932235,-0.46174899,0.355672354,0.071226776,0.121704102,-0.299697876,-1.090698242,45.53834534,28.44403076,-71.40045166
0,43:48.4,0:39,60,0,43:55.2,1540932235,-1.077561849,0.462438216,0.545898489,0.121704102,-0.299697876,-1.090698242,45.61286926,29.05157471,-71.06155396
0,43:48.4,0:39,60,0,43:55.2,1540932235,-1.380007466,0.448844909,0.884346848,0.060150146,0.002090454,-1.385940552,46.0398407,29.35667419,-70.63667297
0,43:48.4,0:39,60,0,43:55.2,1540932235,-1.051470593,0.287853625,0.864793653,-0.042190552,0.154083252,-1.543411255,46.52862549,29.64953613,-70.20887756
0,43:48.4,0:39,60,0,43:55.2,1540932235,-0.192200869,0.092712627,0.537733237,-0.042190552,0.154083252,-1.543411255,46.41915894,29.59347534,-70.21691895
0,43:48.4,0:39,60,0,43:55.2,1540932235,0.652800438,0.038669099,0.12303964,-0.1328125,0.168045044,-1.301879883,46.23316956,28.92965698,-70.79818726
0,43:48.4,0:39,60,0,43:55.2,1540932235,1.065973902,0.057616425,-0.197224123,-0.1328125,0.168045044,-1.301879883,46.23316956,28.92965698,-70.79818726
0,43:48.4,0:39,60,0,43:55.3,1540932235,1.124327224,0.05451837,-0.373934182,-0.105575562,0.086593628,-1.078704834,45.69038391,28.25862122,-71.39909363
0,43:48.4,0:39,60,0,43:55.3,1540932235,0.944872777,0.008018245,-0.486388823,-0.052215576,-0.021499634,-0.851730347,45.24093628,27.72393799,-72.2240448
0,43:48.4,0:39,60,0,43:55.3,1540932235,0.671397026,-0.047476705,-0.558139176,-0.052215576,-0.021499634,-0.851730347,44.81019592,27.10922241,-72.50454712
0,43:48.4,0:39,60,0,43:55.3,1540932235,0.401097094,-0.085970568,-0.56133417,0.019592285,-0.051147461,-0.798828125,44.1081543,27.01399231,-72.85852051
0,43:48.4,0:39,60,0,43:55.3,1540932235,0.218398118,-0.107072125,-0.525977777,0.048416138,-0.049880981,-0.824890137,43.7399292,26.387146,-73.05801392
0,43:48.4,0:39,60,0,43:55.3,1540932235,0.161616594,-0.194244578,-0.499300094,0.048416138,-0.049880981,-0.824890137,43.7399292,26.387146,-73.05801392
0,43:48.4,0:39,60,0,43:55.4,1540932235,0.164590812,-0.326186633,-0.510172183,0.04624939,-0.052856445,-0.835830688,42.91552734,26.31648254,-73.26158142
0,43:48.4,0:39,60,0,43:55.4,1540932235,0.117703997,-0.496468088,-0.55106369,0.02923584,-0.068115234,-0.801391602,42.21217346,26.22114563,-73.77175903
0,43:48.4,0:39,60,0,43:55.4,1540932235,0.008852081,-0.641273478,-0.592979715,0.02923584,-0.068115234,-0.801391602,41.17515564,26.34823608,-73.82342529
0,43:48.4,0:39,60,0,43:55.4,1540932235,-0.122276645,-0.69067485,-0.636914416,0.021057129,-0.065917969,-0.748764038,40.48925781,26.17274475,-73.94534302
0,43:48.4,0:39,60,0,43:55.4,1540932235,-0.225482393,-0.614234936,-0.841329873,0.016021729,-0.041275024,-0.759490967,39.46578979,26.21928406,-74.0773468
0,43:48.4,0:39,60,0,43:55.4,1540932235,-0.225482393,-0.614234936,-0.841329873,0.001998901,-0.020080566,-0.779449463,39.46578979,26.21928406,-74.0773468
0,43:48.4,0:39,60,0,43:55.5,1540932235,-0.234050315,-0.569984384,-1.067225055,-0.002120972,-0.013412476,-0.808395386,38.50352478,26.25352478,-74.28453064
0,43:48.4,0:39,60,0,43:55.5,1540932235,-0.200562662,-0.549735837,-1.342419611,0.03012085,-0.034820557,-0.849761963,37.35766602,26.32463074,-74.2661438
0,43:48.4,0:39,60,0,43:55.5,1540932235,-0.200562662,-0.549735837,-1.342419611,0.083694458,-0.111053467,-0.897033691,36.27107239,26.383255,-74.55726624
0,43:48.4,0:39,60,0,43:55.5,1540932236,-0.120620957,-0.527453169,-1.156081425,0.126205444,-0.18586731,-0.92616272,35.37319946,26.4055481,-74.44915771
0,43:48.4,0:39,60,0,43:55.5,1540932236,0.101655522,-0.167911774,-0.448922673,0.13734436,-0.228164673,-0.922821045,34.92897034,25.87138367,-74.64933777
0,43:48.4,0:39,60,0,43:55.5,1540932236,0.101655522,-0.167911774,-0.448922673,0.105331421,-0.241363525,-0.893875122,34.92897034,25.87138367,-74.64933777
0,43:48.4,0:39,60,0,43:55.6,1540932236,0.099454153,0.607580229,0.103528257,0.066085815,-0.241119385,-0.885665894,34.61587524,25.93205261,-75.13246155
0,43:48.4,0:39,60,0,43:55.6,1540932236,0.057100304,0.852745246,0.295525127,0.044525146,-0.215118408,-0.935623169,34.8878479,25.4125824,-74.98088074
0,43:48.4,0:39,60,0,43:55.6,1540932236,0.057100304,0.852745246,0.295525127,0.063278198,-0.178909302,-1.082122803,35.53070068,25.12913513,-75.42480469
0,43:48.4,0:39,60,0,43:55.6,1540932236,0.247068112,1.03917105,0.553787038,0.092407227,-0.136901855,-1.174942017,36.34242249,24.58001709,-75.55722046
0,43:48.4,0:39,60,0,43:55.6,1540932236,0.145938298,0.840928534,0.602826486,0.117034912,-0.110229492,-1.217681885,37.11283875,24.27249146,-75.52676392
0,43:48.4,0:39,60,0,43:55.6,1540932236,0.145938298,0.840928534,0.602826486,0.110748291,-0.097763062,-1.236221313,37.47943115,23.88952637,-75.44302368
0,43:48.4,0:39,60,0,43:55.7,1540932236,-0.228451551,0.248124855,0.439414389,0.079574585,-0.087051392,-1.255828857,37.47943115,23.88952637,-75.44302368
0,43:48.4,0:39,60,0,43:55.7,1540932236,-0.237511092,0.155673217,0.319366012,0.086471558,-0.051589966,-1.266845703,37.69139099,23.69172668,-75.67303467
0,43:48.4,0:39,60,0,43:55.7,1540932236,-0.224592631,0.320555646,0.439502806,0.211959839,-0.099822998,-1.177352905,37.53996277,23.87718201,-75.59629822
0,43:48.4,0:39,60,0,43:55.7,1540932236,-0.335304232,0.529724046,0.871344763,0.211959839,-0.099822998,-1.177352905,37.89173889,23.57466125,-75.58843994
0,43:48.4,0:39,60,0,43:55.7,1540932236,-0.565446624,0.481684082,1.265418036,0.251495361,-0.081542969,-1.153030396,38.57699585,23.75009155,-75.5446167
0,43:48.4,0:39,60,0,43:55.7,1540932236,-0.741183564,0.209372399,1.352935102,0.210800171,0.026290894,-1.175033569,39.29258728,23.76473999,-75.27098083
0,43:48.4,0:39,60,0,43:55.8,1540932236,-0.718628454,-0.133806268,1.105137284,0.123458862,0.147369385,-1.183807373,39.25454712,24.00666809,-74.71762085
0,43:48.4,0:39,60,0,43:55.8,1540932236,-0.545014852,-0.378237052,0.685016165,0.043701172,0.221603394,-1.169754028,39.25454712,24.00666809,-74.71762085
0,43:48.4,0:39,60,0,43:55.8,1540932236,-0.335196906,-0.462099728,0.326123517,0.007461548,0.202026367,-1.119735718,39.08128357,23.96263123,-74.96287537
0,43:48.4,0:39,60,0,43:55.8,1540932236,-0.19062188,-0.372075296,0.186987731,0.013595581,0.102905273,-1.043838501,38.58659363,24.06031799,-74.98614502
0,43:48.4,0:39,60,0,43:55.8,1540932236,-0.119734924,-0.118731711,0.225834196,0.049468994,-0.060836792,-0.899185181,38.41656494,24.01655579,-74.84089661
0,43:48.4,0:39,60,0,43:55.8,1540932236,-0.12726874,0.217326994,0.324769832,0.049468994,-0.060836792,-0.899185181,38.53843689,23.68270874,-74.45639038
0,43:48.4,0:39,60,0,43:55.9,1540932236,-0.179845665,0.47485627,0.424690304,0.082061768,-0.075180054,-0.863800049,38.98486328,23.5166626,-74.51637268
0,43:48.4,0:39,60,0,43:55.9,1540932236,-0.213285914,0.525674443,0.50935912,0.114517212,-0.090026855,-0.936462402,38.98486328,23.5166626,-74.51637268
0,43:48.4,0:39,60,0,43:55.9,1540932236,-0.187675359,0.349993696,0.562679333,0.114517212,-0.090026855,-0.936462402,39.47953796,23.41899109,-74.49310303
0,43:48.4,0:39,60,0,43:55.9,1540932236,-0.089153046,0.072091771,0.578375738,0.108840942,-0.103912354,-0.973464966,39.67988586,23.30194092,-74.40849304
0,43:48.4,0:39,60,0,43:55.9,1540932236,-0.004672516,-0.140607449,0.551321484,0.02947998,-0.131317139,-0.89453125,39.38424683,23.28244019,-74.50337219
0,43:48.4,0:39,60,0,43:55.9,1540932236,0.02994485,-0.284523875,0.483671333,0.02947998,-0.131317139,-0.89453125,39.48997498,23.02886963,-74.35092163
0,43:48.4,0:39,60,0,43:56.0,1540932236,0.003511911,-0.309916051,0.405473466,-0.028167725,-0.152954102,-0.786224365,39.35165405,22.43333435,-74.92704773
0,43:48.4,0:39,60,0,43:56.0,1540932236,-0.013261477,-0.196078964,0.378846383,-0.028167725,-0.152954102,-0.786224365,39.35165405,22.43333435,-74.92704773
0,43:48.4,0:39,60,0,43:56.0,1540932236,0.010137323,-0.061175207,0.397211808,-0.026275635,-0.163711548,-0.801193237,39.18164063,22.38960266,-74.78179932
0,43:48.4,0:39,60,0,43:56.0,1540932236,0.061500912,0.016220515,0.394082328,-0.018615723,-0.150375366,-0.917266846,39.02452087,22.26524353,-74.79498291
0,43:48.4,0:39,60,0,43:56.0,1540932236,0.145879709,0.009088037,0.352289607,-0.018615723,-0.150375366,-0.917266846,39.12258911,21.70167542,-74.9667511
0,43:48.4,0:39,60,0,43:56.0,1540932236,0.265091854,-0.0057487,0.260148494,-0.027404785,-0.136322021,-0.985412598,39.02600098,21.56498718,-75.13319397
0,43:48.4,0:39,60,0,43:56.1,1540932236,0.422289198,-0.024087759,0.141222373,-0.05229187,-0.119995117,-1.085189819,39.08033752,20.93351746,-74.84152222
0,43:48.4,0:39,60,0,43:56.1,1540932236,0.576751743,0.0019497,0.021280788,-0.05229187,-0.119995117,-1.085189819,39.08033752,20.93351746,-74.84152222
0,43:48.4,0:39,60,0,43:56.1,1540932236,0.685428689,0.095417866,-0.081432808,-0.020996094,-0.131378174,-1.110229492,38.95423889,20.2572937,-75.65414429
0,43:48.4,0:39,60,0,43:56.1,1540932236,0.746044366,0.244346628,-0.143373674,0.029632568,-0.1378479,-1.127868652,39.09553528,19.45230103,-75.75448608
0,43:48.4,0:39,60,0,43:56.1,1540932236,0.737538762,0.34930154,-0.132533543,0.029632568,-0.1378479,-1.127868652,39.28448486,18.71560669,-75.84971619
0,43:48.4,0:39,60,0,43:56.1,1540932236,0.704687072,0.344003181,-0.081130806,0.091369629,-0.164398193,-1.208724976,39.2794342,18.40583801,-75.86151123
0,43:48.4,0:39,60,0,43:56.2,1540932236,0.671730453,0.203753129,-0.092004492,0.075927734,-0.152481079,-1.213027954,39.337677,17.38362122,-76.20863342
0,43:48.4,0:39,60,0,43:56.2,1540932236,0.546551229,-0.007719705,-0.19289622,0.075927734,-0.152481079,-1.213027954,39.12918091,16.88136292,-76.08256531
0,43:48.4,0:39,60,0,43:56.2,1540932236,0.312903052,-0.212606275,-0.328021285,0.046508789,-0.17414856,-1.161437988,39.12918091,16.88136292,-76.08256531
0,43:48.4,0:39,60,0,43:56.2,1540932236,-0.567585408,-0.427107922,-0.292735466,0.071426392,-0.18939209,-1.115875244,38.64233398,16.58865356,-76.27606201
0,43:48.4,0:39,60,0,43:56.2,1540932236,-0.567585408,-0.427107922,-0.292735466,0.132095337,-0.165206909,-1.116897583,38.26348877,17.05230713,-76.12329102
0,43:48.4,0:39,60,0,43:56.2,1540932236,-1.011397209,-0.465007367,-0.028172516,0.151260376,-0.057815552,-1.222000122,37.8291626,17.83802795,-75.80541992
0,43:48.4,0:39,60,0,43:56.3,1540932236,-0.663772395,-0.52311195,-0.126847162,0.045623779,0.113082886,-1.344024658,37.39630127,17.92350769,-75.82579041
0,43:48.4,0:39,60,0,43:56.3,1540932236,-0.663772395,-0.52311195,-0.126847162,-0.067672729,0.224868774,-1.410308838,36.85591125,17.953125,-75.61991882
0,43:48.4,0:39,60,0,43:56.3,1540932236,0.048649828,-0.549890035,-0.550042101,-0.070526123,0.238143921,-1.305419922,36.85591125,17.953125,-75.61991882
0,43:48.4,0:39,60,0,43:56.3,1540932236,0.639316054,-0.499043631,-0.888513897,-0.010559082,0.153564453,-1.098693848,36.22615051,17.45558167,-75.82881165
0,43:48.4,0:39,60,0,43:56.3,1540932236,0.639316054,-0.499043631,-0.888513897,0.054428101,0.036743164,-0.939208984,35.80569458,17.15113831,-75.47271729
0,43:48.4,0:39,60,0,43:56.3,1540932236,0.355623618,-0.409282319,-0.474982237,0.085922241,-0.027816772,-0.830780029,35.29827881,16.62905884,-75.83198547
0,43:48.4,0:39,60,0,43:56.4,1540932236,0.204298011,-0.318703151,-0.313133948,0.084091187,-0.040985107,-0.76663208,34.50161743,16.39733887,-76.11811829
0,43:48.4,0:39,60,0,43:56.4,1540932236,0.204298011,-0.318703151,-0.313133948,0.039123535,-0.033233643,-0.752960205,34.42314148,16.18054199,-75.81825256
0,43:48.4,0:39,60,0,43:56.4,1540932236,0.08802786,-0.239685563,-0.319433656,0.002624512,-0.026321411,-0.754898071,34.42314148,16.18054199,-75.81825256
0,43:48.4,0:39,60,0,43:56.4,1540932236,0.065675949,-0.164612916,-0.376091343,-0.017242432,-0.030197144,-0.744155884,34.10890198,15.93183899,-75.84460449
0,43:48.4,0:39,60,0,43:56.4,1540932236,0.065675949,-0.164612916,-0.376091343,-0.033615112,-0.049499512,-0.742355347,34.11804199,15.54159546,-75.85862732
0,43:48.4,0:39,60,0,43:56.4,1540932236,0.072011343,0.058099256,-0.366180389,-0.025466919,-0.075332642,-0.752532959,33.76252747,15.53448486,-75.72210693
0,43:48.4,0:39,60,0,43:56.5,1540932236,0.117116237,0.290638493,-0.202062554,0.000106812,-0.133956909,-0.79309082,34.26504517,15.0464325,-75.86907959
0,43:48.4,0:39,60,0,43:56.5,1540932236,0.071241956,0.348344134,-0.186988263,0.00479126,-0.127655029,-0.814758301,34.26504517,15.0464325,-75.86907959
0,43:48.4,0:39,60,0,43:56.5,1540932237,0.024742897,0.335841125,-0.194488524,0.012390137,-0.134368896,-0.859283447,34.21740723,14.97816467,-75.87420654
0,43:48.4,0:39,60,0,43:56.5,1540932237,0.000539024,0.233281993,-0.184971451,0.034515381,-0.153625488,-0.912948608,34.46409607,14.92926025,-75.94067383
0,43:48.4,0:39,60,0,43:56.5,1540932237,-0.019968382,0.087234505,-0.128390996,0.059417725,-0.180343628,-0.958068848,34.57421875,14.98538208,-75.85452271
0,43:48.4,0:39,60,0,43:56.6,1540932237,-0.04999286,-0.054519435,-0.040747963,0.071807861,-0.194915771,-0.972839355,34.45056152,15.0098114,-75.86035156
0,43:48.4,0:39,60,0,43:56.6,1540932237,-0.077411701,-0.149699214,0.024463798,0.06098938,-0.190048218,-0.976165771,34.45970154,14.61955261,-75.87437439
0,43:48.4,0:39,60,0,43:56.6,1540932237,-0.077365362,-0.145364653,0.02232741,0.026977539,-0.175994873,-0.973358154,34.45970154,14.61955261,-75.87437439
0,43:48.4,0:39,60,0,43:56.6,1540932237,-0.026807646,-0.049445314,-0.01290488,0.005126953,-0.159255981,-0.990982056,34.4493866,14.70042419,-75.40356445
0,43:48.4,0:39,60,0,43:56.6,1540932237,0.113587815,0.181830253,-0.031928905,0.00440979,-0.147521973,-1.02041626,34.42623901,14.47077942,-75.88172913
0,43:48.4,0:39,60,0,43:56.6,1540932237,0.320831283,0.464248633,-0.017709222,0.028701782,-0.143096924,-1.064437866,34.67553711,14.4221344,-75.63578796
0,43:48.4,0:39,60,0,43:56.7,1540932237,0.483112335,0.676785399,-0.001423193,0.05670166,-0.12928772,-1.102371216,35.34153748,14.36830139,-75.60157776
0,43:48.4,0:39,60,0,43:56.7,1540932237,0.599151324,0.777591373,-0.063436763,0.07019043,-0.095291138,-1.144882202,35.71470642,13.59483337,-75.8442688
0,43:48.4,0:39,60,0,43:56.7,1540932237,0.645845326,0.791503993,-0.138391166,0.072357178,-0.08543396,-1.166885376,36.36929321,12.92137146,-75.98983765
0,43:48.4,0:39,60,0,43:56.7,1540932237,0.515088644,0.671781586,-0.179200115,0.096725464,-0.109985352,-1.176849365,36.36929321,12.92137146,-75.98983765
0,43:48.4,0:39,60,0,43:56.7,1540932237,0.16680097,0.433664358,-0.114087424,0.171936035,-0.154510498,-1.165176392,36.70179749,12.3895874,-75.99154663
0,43:48.4,0:39,60,0,43:56.7,1540932237,-0.324683013,0.13266537,0.061280935,0.241714478,-0.187744141,-1.165359497,36.80603027,12.83627319,-75.50090027
0,43:48.4,0:39,60,0,43:56.8,1540932237,-0.787497001,-0.231787693,0.347933741,0.280273438,-0.206329346,-1.194015503,36.96755981,13.27032471,-75.55401611
0,43:48.4,0:39,60,0,43:56.8,1540932237,-1.040203025,-0.577535511,0.591724567,0.246017456,-0.171325684,-1.2371521,36.33221436,14.17306519,-75.39886475
0,43:48.4,0:39,60,0,43:56.8,1540932237,-1.031468389,-0.748813521,0.666471509,0.166809082,-0.084411621,-1.250442505,36.19810486,14.58761597,-75.54681396
0,43:48.4,0:39,60,0,43:56.8,1540932237,-0.804138562,-0.710509008,0.549740099,0.089736938,-0.007354736,-1.241226196,36.19810486,14.58761597,-75.54681396
0,43:48.4,0:39,60,0,43:56.8,1540932237,-0.434971704,-0.522926594,0.359269219,0.060760498,0.020584106,-1.219772339,35.86312866,14.80987549,-75.24453735
0,43:48.4,0:39,60,0,43:56.8,1540932237,-0.081290862,-0.272950576,0.290957273,0.079803467,-0.023117065,-1.172164917,35.49847412,15.19303894,-75.09399414
0,43:48.4,0:39,60,0,43:56.9,1540932237,0.15334162,0.021918615,0.371579149,0.106033325,-0.0834198,-1.091690063,35.65377808,15.00796509,-74.70213318
0,43:48.4,0:39,60,0,43:56.9,1540932237,0.306497085,0.288344979,0.457539864,0.110458374,-0.107467651,-1.029708862,36.03834534,14.85414124,-74.76499939
0,43:48.4,0:39,60,0,43:56.9,1540932237,0.315846911,0.808753554,0.397140435,0.088806152,-0.074157715,-0.89213562,36.46290588,14.45860291,-75.14692688
0,43:48.4,0:39,60,0,43:56.9,1540932237,0.315846911,0.808753554,0.397140435,0.096786499,-0.060043335,-0.857666016,37.42990112,13.72436523,-74.88748169
0,43:48.4,0:39,60,0,43:56.9,1540932237,0.193383578,0.996257138,0.324582612,0.122268677,-0.055526733,-0.880706787,37.42990112,13.72436523,-74.88748169
0,43:48.4,0:39,60,0,43:56.9,1540932237,0.082469311,0.852617415,0.266605595,0.153213501,-0.070526123,-0.928527832,37.89750671,13.78781128,-74.70355225
0,43:48.4,0:39,60,0,43:57.0,1540932237,0.096396045,0.44776047,0.316433339,0.167297363,-0.098205566,-0.964691162,38.45713806,13.98748779,-74.89987183
0,43:48.4,0:39,60,0,43:57.0,1540932237,0.086989494,-0.07487504,0.39289296,0.15222168,-0.130722046,-0.958740234,38.81785583,13.99508667,-74.41159058
0,43:48.4,0:39,60,0,43:57.0,1540932237,0.019855464,-0.470228228,0.424547293,0.101028442,-0.134567261,-0.87411499,38.84298706,13.83377075,-74.80653381
0,43:48.4,0:39,60,0,43:57.0,1540932237,-0.090932038,-0.714390299,0.349312459,0.019363403,-0.119033813,-0.77746582,38.60920715,13.80206299,-74.89851379
0,43:48.4,0:39,60,0,43:57.0,1540932237,-0.240646166,-0.85728061,0.197109873,-0.043212891,-0.110275269,-0.700454712,38.60920715,13.80206299,-74.89851379
0,43:48.4,0:39,60,0,43:57.0,1540932237,-0.374263615,-0.859741903,0.051501807,-0.080032349,-0.117782593,-0.65447998,38.18743896,13.4974823,-74.6986084
0,43:48.4,0:39,60,0,43:57.1,1540932237,-0.446651263,-0.732138936,-0.03827575,-0.097717285,-0.143783569,-0.650894165,37.55993652,14.00985718,-74.71366882
0,43:48.4,0:39,60,0,43:57.1,1540932237,-0.453678014,-0.474665587,-0.033673009,-0.089004517,-0.173126221,-0.674530029,37.05545044,14.49771118,-74.80099487
0,43:48.4,0:39,60,0,43:57.1,1540932237,-0.357696623,-0.129694614,0.022414229,-0.074737549,-0.191711426,-0.730209351,36.86341858,14.92485046,-74.48330688
0,43:48.4,0:39,60,0,43:57.1,1540932237,-0.199241201,0.239605136,0.065666096,-0.079971313,-0.188720703,-0.79637146,36.89050293,14.76374817,-74.64395142
0,43:48.4,0:39,60,0,43:57.1,1540932237,-0.054801464,0.554271467,0.010334663,-0.113113403,-0.172363281,-0.867370605,36.89050293,14.76374817,-74.64395142
0,43:48.4,0:39,60,0,43:57.1,1540932237,0.021599834,0.682798018,-0.126595493,-0.150146484,-0.167190552,-0.948135376,37.49858093,14.72250366,-74.14405823
0,43:48.4,0:39,60,0,43:57.2,1540932237,0.021599834,0.682798018,-0.126595493,-0.150146484,-0.167190552,-0.948135376,37.86108398,15.03955078,-74.0344696
0,43:48.4,0:39,60,0,43:57.2,1540932237,0.008917062,0.503451962,-0.417017205,-0.166946411,-0.151123047,-1.129455566,38.20501709,15.12741089,-73.85636902
0,43:48.4,0:39,60,0,43:57.2,1540932237,0.060364008,0.350798237,-0.503957696,-0.166030884,-0.144851685,-1.237548828,38.2532959,15.19577026,-73.77314758
0,43:48.4,0:39,60,0,43:57.2,1540932237,0.060364008,0.350798237,-0.503957696,-0.166030884,-0.144851685,-1.237548828,38.69334412,14.71983337,-74.00108337
0,43:48.4,0:39,60,0,43:57.2,1540932237,0.332712976,0.061168017,-0.947717299,-0.147247314,-0.061630249,-1.352890015,38.33651733,14.71260071,-74.02076721
0,43:48.4,0:39,60,0,43:57.2,1540932237,0.552621106,-0.172186414,-1.273600066,-0.070480347,-0.048156738,-1.389801025,38.33651733,14.71260071,-74.02076721
0,43:48.4,0:39,60,0,43:57.3,1540932237,0.552621106,-0.172186414,-1.273600066,0.081970215,-0.092269897,-1.368530273,38.00939941,14.54452515,-73.88870239
0,43:48.4,0:39,60,0,43:57.3,1540932237,0.444256815,-0.502737702,-1.389634794,0.216720581,-0.193557739,-1.319381714,37.7550354,14.28341675,-74.14645386
0,43:48.4,0:39,60,0,43:57.3,1540932237,0.114303673,-0.643559802,-1.085604329,0.308532715,-0.295578003,-1.281051636,36.86291504,14.61553955,-73.94842529
0,43:48.4,0:39,60,0,43:57.3,1540932237,-0.326520328,-0.772981441,-0.661596593,0.348297119,-0.347686768,-1.26852417,36.65750122,14.42285156,-74.04483032
0,43:48.4,0:39,60,0,43:57.3,1540932237,-0.733016448,-0.826203917,-0.171109698,0.375747681,-0.306671143,-1.26184082,36.04418945,14.85470581,-74.06211853
0,43:48.4,0:39,60,0,43:57.3,1540932237,-0.867418465,-0.786475146,0.224119653,0.365631104,-0.166168213,-1.302474976,36.04418945,14.85470581,-74.06211853
0,43:48.4,0:39,60,0,43:57.4,1540932237,-0.599347066,-0.732228419,0.350483717,0.288284302,0.020812988,-1.354171753,35.46563721,15.43548584,-73.91586304
0,43:48.4,0:39,60,0,43:57.4,1540932237,-0.023262978,-0.738085509,0.161866132,0.180038452,0.165390015,-1.353134155,34.95022583,16.00418091,-73.61048889
0,43:48.4,0:39,60,0,43:57.4,1540932237,0.53805974,-0.653684607,-0.112305503,0.11390686,0.225662231,-1.226455688,34.38079834,16.19467163,-73.47825623
0,43:48.4,0:39,60,0,43:57.4,1540932237,0.872974884,-0.39783339,-0.252353422,0.08732605,0.179855347,-1.028427124,34.24700928,15.59959412,-73.50769043
0,43:48.4,0:39,60,0,43:57.4,1540932237,0.967909919,-0.058153318,-0.223044002,0.08052063,0.084274292,-0.8644104,34.19644165,14.52134705,-73.78474426
0,43:48.4,0:39,60,0,43:57.4,1540932237,0.850268773,0.239878643,-0.087719466,0.089584351,0.000274658,-0.757553101,34.19644165,14.52134705,-73.78474426
0,43:48.4,0:39,60,0,43:57.5,1540932237,0.559236132,0.391197325,0.096725478,0.099655151,-0.05682373,-0.708786011,34.46517944,14.00158691,-74.02368164
0,43:48.4,0:39,60,0,43:57.5,1540932237,0.175788073,0.359572287,0.270258386,0.102249146,-0.079345703,-0.702224731,34.77760315,13.94085693,-73.61863708
0,43:48.4,0:39,60,0,43:57.5,1540932237,-0.171036195,0.168946146,0.356846542,0.081695557,-0.065109253,-0.736190796,34.91923523,14.14553833,-73.75942993
0,43:48.4,0:39,60,0,43:57.5,1540932238,-0.414153774,-0.122742431,0.312639932,0.035720825,-0.032409668,-0.779846191,34.8644104,14.4677124,-73.51625061
0,43:48.4,0:39,60,0,43:57.5,1540932238,-0.548168833,-0.383747398,0.177421656,-0.020080566,-0.01335144,-0.792984009,34.77416992,14.64091492,-73.51470947
0,43:48.4,0:39,60,0,43:57.5,1540932238,-0.549629844,-0.463125578,0.015623967,-0.06791687,-0.008605957,-0.782943726,34.77416992,14.64091492,-73.51470947
0,43:48.4,0:39,60,0,43:57.6,1540932238,-0.448152753,-0.368202527,-0.163117285,-0.100234985,-0.01701355,-0.769210815,34.50479126,15.16061401,-73.35388184
0,43:48.4,0:39,60,0,43:57.6,1540932238,-0.305674967,-0.168885426,-0.309613782,-0.110351563,-0.039855957,-0.756408691,34.27735901,15.438797,-73.27784729
0,43:48.4,0:39,60,0,43:57.6,1540932238,-0.154818343,0.051512193,-0.3382915,-0.081390381,-0.089309692,-0.761764526,34.09690857,15.78520203,-73.27476501
0,43:48.4,0:39,60,0,43:57.6,1540932238,-0.038038729,0.271632844,-0.215969848,-0.042938232,-0.148590088,-0.764480591,34.13165283,15.93408203,-73.11122131
0,43:48.4,0:39,60,0,43:57.6,1540932238,-0.02216256,0.437182927,0.000544616,-0.010040283,-0.199386597,-0.761199951,34.5632019,15.84849548,-73.24703979
0,43:48.4,0:39,60,0,43:57.6,1540932238,-0.131708496,0.386576208,0.206114021,0.005493164,-0.227172852,-0.787094116,35.01219177,15.68270874,-72.99459839
0,43:48.4,0:39,60,0,43:57.7,1540932238,-0.302729511,0.162947376,0.279768801,-0.016448975,-0.218597412,-0.826965332,35.01219177,15.68270874,-72.99459839
0,43:48.4,0:39,60,0,43:57.7,1540932238,-0.438072955,-0.112354239,0.206643191,-0.061935425,-0.192810059,-0.880508423,35.14286804,15.96824646,-72.74269104
0,43:48.4,0:39,60,0,43:57.7,1540932238,-0.453464428,-0.312944598,0.096100701,-0.094894409,-0.181243896,-0.947753906,34.8271637,16.4197998,-72.43081665
0,43:48.4,0:39,60,0,43:57.7,1540932238,-0.374724875,-0.363201643,0.032838907,-0.105941772,-0.177047729,-1.001693726,34.68533325,16.91548157,-71.79560852
0,43:48.4,0:39,60,0,43:57.7,1540932238,-0.245161555,-0.272418476,0.010431602,-0.105911255,-0.154602051,-1.058288574,34.36376953,17.36643982,-72.18659973
0,43:48.4,0:39,60,0,43:57.7,1540932238,-0.099045624,-0.098621649,0.015965118,-0.072097778,-0.110458374,-1.111557007,34.60736084,17.00799561,-72.03057861
0,43:48.4,0:39,60,0,43:57.8,1540932238,0.010362892,-0.00467438,0.062101721,0.002044678,-0.053665161,-1.177764893,34.60736084,17.00799561,-72.03057861
0,43:48.4,0:39,60,0,43:57.8,1540932238,0.048186438,-0.119842249,0.100501574,0.131896973,0.072097778,-1.30480957,34.6962738,16.83467102,-72.18832397
0,43:48.4,0:39,60,0,43:57.8,1540932238,-0.02686304,-0.480173803,0.048673796,0.131896973,0.072097778,-1.30480957,34.18475342,17.40371704,-71.41435242
0,43:48.4,0:39,60,0,43:57.8,1540932238,-0.188769918,-0.914801693,-0.148861917,0.103561401,0.111221313,-1.301254272,33.41824341,17.71162415,-70.97622681
0,43:48.4,0:39,60,0,43:57.8,1540932238,-0.450139472,-1.236908364,-0.656784793,-0.007293701,0.036956787,-1.207519531,32.72189331,17.92625427,-71.24029541
0,43:48.4,0:39,60,0,43:57.8,1540932238,-0.450139472,-1.236908364,-0.656784793,-0.007293701,0.036956787,-1.207519531,31.98052979,18.07284546,-71.19711304
0,43:48.4,0:39,60,0,43:57.9,1540932238,-0.433874482,-0.856415082,-0.637043845,0.013275146,-0.036361694,-1.155197144,31.98052979,18.07284546,-71.19711304
0,43:48.4,0:39,60,0,43:57.9,1540932238,-0.280755768,-0.222965173,-0.369654749,0.10093689,-0.126235962,-1.123764038,31.54898071,18.15844727,-71.0612793
0,43:48.4,0:39,60,0,43:57.9,1540932238,-0.096810433,0.353473915,0.015451394,0.10093689,-0.126235962,-1.123764038,31.7878418,18.49992371,-70.95750427
0,43:48.4,0:39,60,0,43:57.9,1540932238,-0.065071944,0.556162578,0.373361603,0.109207153,-0.074264526,-1.131240845,32.25605774,18.56340027,-70.69551086
0,43:48.4,0:39,60,0,43:57.9,1540932238,-0.458931365,0.016882843,0.666207324,0.04977417,-0.006256104,-1.138626099,32.40470886,19.07806396,-70.59020996
0,43:48.4,0:39,60,0,43:57.9,1540932238,-0.458931365,0.016882843,0.666207324,0.04977417,-0.006256104,-1.138626099,32.54385376,18.97328186,-70.43041992
0,43:48.4,0:39,60,0,43:58.0,1540932238,-0.135500837,-0.213924806,0.266413314,-0.074707031,0.119049072,-1.139755249,32.22503662,19.11528015,-69.89604187
0,43:48.4,0:39,60,0,43:58.0,1540932238,0.247097141,0.057838533,0.089964245,-0.098022461,0.085083008,-1.071044922,32.22503662,19.11528015,-69.89604187
0,43:48.4,0:39,60,0,43:58.0,1540932238,0.247097141,0.057838533,0.089964245,-0.098022461,0.085083008,-1.071044922,32.5818634,19.12251282,-69.87637329
0,43:48.4,0:39,60,0,43:58.0,1540932238,0.550802167,0.766872949,0.298512928,0.006851196,-0.071990967,-0.882751465,32.61401367,19.27114868,-70.02522278
0,43:48.4,0:39,60,0,43:58.0,1540932238,0.404407403,0.962858435,0.596489495,0.065597534,-0.113388062,-0.858154297,33.36763,19.04386902,-70.30493164
0,43:48.4,0:39,60,0,43:58.0,1540932238,0.404407403,0.962858435,0.596489495,0.065567017,-0.104598999,-0.886169434,34.19664001,18.72383118,-70.66204834
0,43:48.4,0:39,60,0,43:58.1,1540932238,0.030500385,0.907847647,0.644700434,0.024993896,-0.059814453,-0.851806641,35.15454102,18.37986755,-70.38856506
0,43:48.4,0:39,60,0,43:58.1,1540932238,0.030500385,0.907847647,0.644700434,0.024993896,-0.059814453,-0.851806641,35.15454102,18.37986755,-70.38856506
0,43:48.4,0:39,60,0,43:58.1,1540932238,-0.107655358,0.621506431,0.363814703,0.029083252,-0.106536865,-0.874511719,35.43270874,18.47955322,-70.68196106
0,43:48.4,0:39,60,0,43:58.1,1540932238,0.027715251,0.266856997,0.549674585,0.138595581,-0.116455078,-0.922805786,35.99819946,18.67979431,-70.17538452
0,43:48.4,0:39,60,0,43:58.1,1540932238,0.027715251,0.266856997,0.549674585,0.138595581,-0.116455078,-0.922805786,36.12887573,18.96531677,-69.92346191
0,43:48.4,0:39,60,0,43:58.1,1540932238,0.275146352,0.050685282,0.729253135,0.092559814,-0.129760742,-0.847793579,36.25123596,18.94075012,-70.07383728
0,43:48.4,0:39,60,0,43:58.2,1540932238,0.230395925,0.105315238,0.699347168,0.058868408,-0.090698242,-0.771255493,36.61524963,18.55755615,-70.30249023
0,43:48.4,0:39,60,0,43:58.2,1540932238,0.230395925,0.105315238,0.699347168,0.012786865,-0.080596924,-0.725006104,36.61524963,18.55755615,-70.30249023
0,43:48.4,0:39,60,0,43:58.2,1540932238,0.036397955,0.391351522,0.501637284,-0.031448364,-0.08770752,-0.774230957,36.70741272,18.384552,-70.06973267
0,43:48.4,0:39,60,0,43:58.2,1540932238,0.098849083,0.491937252,0.352896541,-0.034286499,-0.089523315,-0.890411377,37.35858154,18.41114807,-70.11138916
0,43:48.4,0:39,60,0,43:58.2,1540932238,0.179555381,0.52833574,0.253331867,-0.014297485,-0.110565186,-0.988494873,37.59172058,18.44281006,-70.09751892
0,43:48.4,0:39,60,0,43:58.2,1540932238,0.253588063,0.545042282,0.225492246,0.005813599,-0.140548706,-1.063751221,37.88995361,18.46257019,-69.69026184
0,43:48.4,0:39,60,0,43:58.3,1540932238,0.228167924,0.537637896,0.244764744,0.009292603,-0.178131104,-1.107315063,38.28741455,18.22810364,-69.9115448
0,43:48.4,0:39,60,0,43:58.3,1540932238,0.127076992,0.569662141,0.323001493,0.020401001,-0.18371582,-1.136611938,38.67521667,18.07461548,-69.58392334
0,43:48.4,0:39,60,0,43:58.3,1540932238,0.059447082,0.575355181,0.414048046,0.026565552,-0.164199829,-1.209396362,39.27432251,17.72325134,-69.56440735
0,43:48.4,0:39,60,0,43:58.3,1540932238,0.067530308,0.550199228,0.464345572,0.020111084,-0.127212524,-1.2840271,39.27432251,17.72325134,-69.56440735
0,43:48.4,0:39,60,0,43:58.3,1540932238,0.104079798,0.394255167,0.424522525,-0.004486084,-0.102996826,-1.357528687,39.56588745,18.44274902,-69.44371033
0,43:48.4,0:39,60,0,43:58.3,1540932238,0.049669286,0.07626814,0.282789625,-0.043624878,-0.090438843,-1.383132935,39.65611267,18.26954651,-69.44525146
0,43:48.4,0:39,60,0,43:58.4,1540932238,-0.097634149,-0.373663871,0.090585827,-0.068328857,-0.101196289,-1.394439697,39.30125427,18.26252747,-69.23065186
0,43:48.4,0:39,60,0,43:58.4,1540932238,-0.288412623,-0.85232207,-0.116635004,-0.065612793,-0.08366394,-1.372589111,39.04998779,18.31098938,-69.71087646
0,43:48.4,0:39,60,0,43:58.4,1540932238,-0.447152737,-1.06209128,-0.292476873,-0.074813843,-0.057189941,-1.294586182,39.04998779,18.31098938,-69.71087646
0,43:48.4,0:39,60,0,43:58.4,1540932238,-0.517523306,-0.847743297,-0.441045309,-0.10723877,-0.004425049,-1.214004517,37.96646118,19.07029724,-69.11705017
0,43:48.4,0:39,60,0,43:58.4,1540932238,-0.346804028,-0.552605394,-0.544595937,-0.103942871,0.059539795,-1.221878052,37.58564758,19.53375244,-69.19856262
0,43:48.4,0:39,60,0,43:58.4,1540932238,0.087960749,-0.322722394,-0.651503212,-0.082168579,0.11164856,-1.272720337,37.2467804,19.75567627,-69.36486816
0,43:48.4,0:39,60,0,43:58.5,1540932238,0.553526581,-0.174345705,-0.736030347,-0.046707153,0.153137207,-1.229598999,36.82501221,19.45109558,-69.16496277
0,43:48.4,0:39,60,0,43:58.5,1540932238,0.818174752,-0.082503133,-0.806657646,-0.02116394,0.157470703,-1.097991943,36.88703918,18.73849487,-69.65647888
0,43:48.4,0:39,60,0,43:58.5,1540932238,0.823865128,-0.044602888,-0.831242085,-0.00340271,0.112350464,-0.957336426,36.53935242,18.34101868,-69.69018555
0,43:48.4,0:39,60,0,43:58.5,1540932239,0.672653505,-0.081144921,-0.79698318,0.0131073,0.045455933,-0.86517334,36.53935242,18.34101868,-69.69018555
0,43:48.4,0:39,60,0,43:58.5,1540932239,0.438529421,-0.175499386,-0.712445126,0.032363892,-0.01550293,-0.809692383,36.30621338,18.30937195,-69.70405579
0,43:48.4,0:39,60,0,43:58.5,1540932239,0.158166735,-0.241498111,-0.575388737,0.063476563,-0.056137085,-0.770690918,35.99572754,18.37030029,-69.87480164
0,43:48.4,0:39,60,0,43:58.6,1540932239,-0.131520477,-0.279473989,-0.391177618,0.123596191,-0.083358765,-0.782608032,35.62600708,18.44369507,-69.73605347
0,43:48.4,0:39,60,0,43:58.6,1540932239,-0.355938138,-0.323570078,-0.185572527,0.123596191,-0.083358765,-0.782608032,35.30575562,18.89480591,-69.97085571
0,43:48.4,0:39,60,0,43:58.6,1540932239,-0.452726466,-0.367732479,0.000726244,0.125747681,-0.075592041,-0.814437866,35.07130432,18.86300659,-70.14091492
0,43:48.4,0:39,60,0,43:58.6,1540932239,-0.214969831,-0.296782139,0.080000294,0.030883789,-0.05632019,-0.825622559,35.07130432,18.86300659,-70.14091492
0,43:48.4,0:39,60,0,43:58.6,1540932239,-0.214969831,-0.296782139,0.080000294,0.030883789,-0.05632019,-0.825622559,35.15562439,19.08039856,-69.73794556
0,43:48.4,0:39,60,0,43:58.6,1540932239,-0.023554595,-0.147937267,-0.004460262,-0.009735107,-0.056900024,-0.797790527,34.89849854,19.51942444,-69.81365967
0,43:48.4,0:39,60,0,43:58.7,1540932239,0.066532422,-0.01851616,-0.127471407,-0.025039673,-0.071777344,-0.772216797,34.77546692,19.54389954,-69.74136353
0,43:48.4,0:39,60,0,43:58.7,1540932239,-0.00934663,0.079831183,-0.195866976,0.017288208,-0.094833374,-0.750274658,34.92364502,19.35812378,-70.20858765
0,43:48.4,0:39,60,0,43:58.7,1540932239,-0.162995046,0.124338997,-0.137948549,0.156021118,-0.148773193,-0.880172729,34.86816406,19.6802063,-70.04348755
0,43:48.4,0:39,60,0,43:58.7,1540932239,-0.104676612,-0.014407701,0.067471719,0.151428223,-0.157989502,-0.992767334,34.86816406,19.6802063,-70.04348755
0,43:48.4,0:39,60,0,43:58.7,1540932239,-0.104676612,-0.014407701,0.067471719,0.151428223,-0.157989502,-0.992767334,35.00602722,19.57528687,-70.03988647
0,43:48.4,0:39,60,0,43:58.7,1540932239,0.319462684,-0.014766962,-0.049354767,0.076004028,-0.152099609,-1.046661377,34.79652405,20.08261108,-70.11045837
0,43:48.4,0:39,60,0,43:58.8,1540932239,0.319462684,-0.014766962,-0.049354767,0.076004028,-0.152099609,-1.046661377,34.65101624,19.87750244,-70.43824768
0,43:48.4,0:39,60,0,43:58.8,1540932239,0.308452111,0.389620734,0.011114969,0.088272095,-0.200820923,-0.987716675,34.84811401,19.76014709,-70.74412537
0,43:48.4,0:39,60,0,43:58.8,1540932239,0.213946111,0.498583703,0.307900837,0.074508667,-0.156539917,-1.218673706,35.47886658,19.24810791,-70.33859253
0,43:48.4,0:39,60,0,43:58.8,1540932239,0.254107912,0.166362613,0.252867412,0.021255493,-0.121414185,-1.229156494,35.65586853,19.60177612,-70.23773193
0,43:48.4,0:39,60,0,43:58.9,1540932239,0.254107912,0.166362613,0.252867412,0.021255493,-0.121414185,-1.229156494,35.91546631,19.472229,-70.46261597
0,43:48.4,0:39,60,0,43:58.9,1540932239,-0.162755628,0.100556169,0.128666633,-0.084854126,-0.187225342,-1.146911621,36.22061157,19.720047,-71.52961731
0,43:48.4,0:39,60,0,43:58.9,1540932239,-0.54802742,-0.02172234,0.256041101,-0.052566528,-0.228805542,-1.173126221,36.19026184,19.88085938,-71.75946045
0,43:48.4,0:39,60,0,43:58.9,1540932239,-0.54802742,-0.02172234,0.256041101,-0.052566528,-0.228805542,-1.173126221,36.19026184,19.88085938,-71.75946045
0,43:48.4,0:39,60,0,43:58.9,1540932239,-1.118448562,0.044551756,1.010146855,0.080429077,-0.039916992,-1.292282104,36.56829834,20.11750793,-71.49589539
0,43:48.4,0:39,60,0,43:58.9,1540932239,-0.824616939,-0.000318514,0.976824052,0.003646851,0.167480469,-1.452972412,36.88298035,21.06668091,-70.89703369
0,43:48.4,0:39,60,0,43:59.0,1540932239,-0.824616939,-0.000318514,0.976824052,-0.084365845,0.324707031,-1.517929077,37.23002625,21.46409607,-70.94140625
0,43:48.4,0:39,60,0,43:59.0,1540932239,0.292169811,-0.211533554,-0.005685583,-0.127120972,0.35105896,-1.4243927,37.1539917,21.55680847,-70.9420929
0,43:48.4,0:39,60,0,43:59.0,1540932239,0.638008176,-0.183179943,-0.352693076,-0.092422485,0.249847412,-1.246627808,37.11029053,21.0977478,-71.58604431
0,43:48.4,0:39,60,0,43:59.0,1540932239,0.78441599,-0.213548768,-0.412734043,-0.029754639,0.09324646,-1.070999146,36.97389221,20.50241089,-71.92785645
0,43:48.4,0:39,60,0,43:59.0,1540932239,0.671835648,-0.261770359,-0.255349744,0.037109375,-0.035293579,-0.881454468,36.97389221,20.50241089,-71.92785645
0,43:48.4,0:39,60,0,43:59.0,1540932239,0.295326455,-0.216890502,-0.026039324,0.075881958,-0.098602295,-0.7081604,36.81614685,20.37799072,-72.01914978
0,43:48.4,0:39,60,0,43:59.1,1540932239,-0.182853972,-0.007557519,0.164947409,0.096511841,-0.092254639,-0.61366272,36.58804321,20.65611267,-72.02119446
0,43:48.4,0:39,60,0,43:59.1,1540932239,-0.461912508,0.188966726,0.376216778,0.12940979,-0.091049194,-0.668365479,36.93325806,20.74407959,-71.68690491
0,43:48.4,0:39,60,0,43:59.1,1540932239,-0.452201557,0.170376796,0.673891076,0.172302246,-0.127258301,-0.821899414,37.08648682,20.86804199,-72.14228821
0,43:48.4,0:39,60,0,43:59.1,1540932239,-0.275155141,0.003176086,0.947782813,0.174865723,-0.145339966,-0.910400391,37.57203674,21.16061401,-72.10498047
0,43:48.4,0:39,60,0,43:59.1,1540932239,-0.147415287,-0.206693525,0.920721634,0.113067627,-0.078933716,-0.906326294,37.57203674,21.16061401,-72.10498047
0,43:48.4,0:39,60,0,43:59.1,1540932239,-0.059757606,-0.327396241,0.330506813,-0.066818237,0.121871948,-0.845794678,37.59977722,20.99954224,-72.18753052
0,43:48.4,0:39,60,0,43:59.2,1540932239,0.101128482,-0.350146295,-0.04650332,-0.095153809,0.022460938,-0.809188843,37.22027588,21.46313477,-72.112854
0,43:48.4,0:39,60,0,43:59.2,1540932239,0.029431658,-0.504181934,0.237102297,0.014266968,-0.192581177,-0.789337158,37.20166016,21.23394775,-72.0443573
0,43:48.4,0:39,60,0,43:59.2,1540932239,-0.024807612,-0.262606059,0.543679809,0.007919312,-0.23274231,-0.719665527,37.0625,21.3387146,-72.20411682
0,43:48.4,0:39,60,0,43:59.2,1540932239,0.032995234,0.06426261,0.620100282,-0.033889771,-0.171066284,-0.728363037,37.67320251,20.90660095,-72.49923706
0,43:48.4,0:39,60,0,43:59.2,1540932239,0.104007626,0.306135694,0.551846393,-0.059997559,-0.136489868,-0.791793823,37.67320251,20.90660095,-72.49923706
0,43:48.4,0:39,60,0,43:59.2,1540932239,0.219507857,0.546885722,0.38720285,-0.027145386,-0.118530273,-0.84538269,38.15109253,20.8891449,-72.78613281
0,43:48.4,0:39,60,0,43:59.3,1540932239,0.430225685,0.376873247,0.20168332,-0.0103302,-0.136886597,-1.042892456,38.74169922,20.92810059,-72.67449951
0,43:48.4,0:39,60,0,43:59.3,1540932239,0.644442107,0.175535605,-0.273008367,-0.101150513,-0.022583008,-1.216384888,38.73339844,20.61801147,-73.07678223
0,43:48.4,0:39,60,0,43:59.3,1540932239,0.684797253,0.166099227,-0.444367603,-0.067062378,-0.089141846,-1.09034729,38.55703735,20.2644043,-73.09954834
0,43:48.4,0:39,60,0,43:59.3,1540932239,0.485596266,0.185145622,-0.401461681,-0.012313843,-0.214248657,-1.015884399,38.69754028,19.76858521,-73.89094543
0,43:48.4,0:39,60,0,43:59.3,1540932239,0.178326066,0.019560918,-0.450851601,-0.027694702,-0.192077637,-1.027435303,38.51266479,19.80528259,-73.82156372
0,43:48.4,0:39,60,0,43:59.3,1540932239,-0.018548384,-0.074529895,-0.521597144,-0.082595825,-0.147583008,-1.100097656,38.51266479,19.80528259,-73.82156372
0,43:48.4,0:39,60,0,43:59.4,1540932239,0.030096383,0.030262032,-0.607148531,-0.088653564,-0.104736328,-1.149368286,38.47009277,20.04675293,-73.81489563
0,43:48.4,0:39,60,0,43:59.4,1540932239,0.156918511,0.153716859,-0.678774514,-0.113189697,-0.087646484,-1.209014893,38.2555542,20.24432373,-73.89727783
0,43:48.4,0:39,60,0,43:59.4,1540932239,0.120505642,0.313092936,-0.686065184,-0.107345581,-0.109130859,-1.198348999,38.25814819,20.24458313,-73.5848999
0,43:48.4,0:39,60,0,43:59.4,1540932239,-0.063364326,0.264154954,-0.719277999,-0.074798584,-0.106826782,-1.235443115,38.50160217,20.19535828,-74.0418396
0,43:48.4,0:39,60,0,43:59.4,1540932239,-0.321057119,0.125774973,-0.658347536,-0.026107788,-0.084182739,-1.271820068,38.44416809,20.51722717,-74.11103821
0,43:48.4,0:39,60,0,43:59.4,1540932239,-0.525793753,0.043655069,-0.458148396,0.022354126,-0.059707642,-1.265625,38.44416809,20.51722717,-74.11103821
0,43:48.4,0:39,60,0,43:59.5,1540932239,-0.403774103,0.0207146,-0.423938494,0.003677368,0.047698975,-1.305282593,38.08079529,20.9005127,-73.80429077
0,43:48.4,0:39,60,0,43:59.5,1540932239,-0.001402154,0.030799991,-0.66603768,-0.029785156,0.158920288,-1.253356934,37.96282959,21.23475647,-73.72021484
0,43:48.4,0:39,60,0,43:59.5,1540932239,0.127216276,-0.288885867,-1.092665967,-0.029785156,0.158920288,-1.253356934,37.38821411,21.42477417,-74.21273804
0,43:48.4,0:39,60,0,43:59.5,1540932240,0.168586353,-0.345997889,-0.974951583,0.070495605,-0.023254395,-1.025787354,37.22410583,20.99047852,-74.47203064
0,43:48.4,0:39,60,0,43:59.5,1540932240,0.22699347,-0.106867595,-0.597727332,0.073257446,-0.071243286,-0.856536865,36.89501953,20.82217407,-74.57424927
0,43:48.4,0:39,60,0,43:59.5,1540932240,0.409115606,-0.098485029,-0.426422957,0.073257446,-0.071243286,-0.856536865,36.87382507,20.59274292,-74.81813049
0,43:48.4,0:39,60,0,43:59.6,1540932240,0.409115606,-0.098485029,-0.426422957,-0.034912109,-0.056442261,-0.871734619,36.87382507,20.59274292,-74.81813049
0,43:48.4,0:39,60,0,43:59.6,1540932240,0.361736638,-0.273893601,-0.26599866,-0.051528931,-0.011047363,-0.750137329,36.56593323,20.65393066,-74.6764679
0,43:48.4,0:39,60,0,43:59.6,1540932240,0.361736638,-0.273893601,-0.26599866,-0.051528931,-0.011047363,-0.750137329,36.23490906,20.48544312,-75.01300049
0,43:48.4,0:39,60,0,43:59.6,1540932240,0.039117842,-0.039516783,-0.219584822,-0.029449463,0.032730103,-0.645736694,36.1942749,20.72712708,-74.77203369
0,43:48.4,0:39,60,0,43:59.6,1540932240,-0.523572144,-0.089624958,-0.132771364,0.00630188,0.003952026,-0.753051758,36.60527039,20.41212463,-75.07363892
0,43:48.4,0:39,60,0,43:59.6,1540932240,-0.523572144,-0.089624958,-0.132771364,0.00630188,0.003952026,-0.753051758,36.36491394,20.77093506,-74.83918762
0,43:48.4,0:39,60,0,43:59.7,1540932240,-0.423485757,-0.338991645,-0.224126311,-0.033355713,-0.014160156,-0.870544434,36.36491394,20.77093506,-74.83918762
0,43:48.4,0:39,60,0,43:59.7,1540932240,-0.328457245,-0.633396913,-0.130276514,0.190353394,-0.124679565,-0.960647583,36.06976318,21.45187378,-74.36152649
0,43:48.4,0:39,60,0,43:59.7,1540932240,-0.328457245,-0.633396913,-0.130276514,0.190353394,-0.124679565,-0.960647583,35.4680481,21.80297852,-74.69342041
0,43:48.4,0:39,60,0,43:59.7,1540932240,-0.290024634,-0.208421384,0.072631327,0.064361572,-0.159423828,-0.830200195,35.30880737,22.37884521,-74.44645691
0,43:48.4,0:39,60,0,43:59.7,1540932240,-0.308524016,-0.063055399,0.009634252,-0.044311523,-0.12701416,-0.860717773,35.3951416,22.20524597,-74.91659546
0,43:48.4,0:39,60,0,43:59.7,1540932240,-0.308524016,-0.063055399,0.009634252,-0.044250488,-0.133071899,-0.934646606,35.75325012,22.21260071,-74.74072266
0,43:48.4,0:39,60,0,43:59.8,1540932240,-0.221378994,-0.01376082,-0.084561756,-0.055450439,-0.127456665,-1.013046265,35.75325012,22.21260071,-74.74072266
0,43:48.4,0:39,60,0,43:59.8,1540932240,-0.093299321,-0.085072018,-0.140365367,-0.059692383,-0.160369873,-1.064285278,35.73905945,22.29310608,-74.73849487
0,43:48.4,0:39,60,0,43:59.8,1540932240,0.087730119,-0.143719352,-0.244354884,-0.079864502,-0.171661377,-1.093643188,35.44000244,22.97367859,-74.72943115
0,43:48.4,0:39,60,0,43:59.8,1540932240,0.187409842,-0.094755005,-0.286082091,-0.06602478,-0.208023071,-1.078674316,35.19850159,23.02310181,-74.03817749
0,43:48.4,0:39,60,0,43:59.8,1540932240,0.240352685,0.0314008,-0.314852486,-0.067062378,-0.226531982,-1.076065063,35.27586365,22.53936768,-74.98869324
0,43:48.4,0:39,60,0,43:59.8,1540932240,0.324778887,0.130415531,-0.393994443,-0.108642578,-0.209869385,-1.127868652,35.50265503,22.26112366,-75.14283752
0,43:48.4,0:39,60,0,43:59.9,1540932240,0.433616155,0.139366682,-0.459332171,-0.114212036,-0.207870483,-1.179931641,35.50265503,22.26112366,-75.14283752
0,43:48.4,0:39,60,0,43:59.9,1540932240,0.510553814,0.11837751,-0.534336907,-0.101196289,-0.214950562,-1.193130493,35.53756714,21.7096405,-75.47369385
0,43:48.4,0:39,60,0,43:59.9,1540932240,0.502750752,0.068796908,-0.559026009,-0.086975098,-0.197769165,-1.168624878,35.61686707,21.61726379,-75.08251953
0,43:48.4,0:39,60,0,43:59.9,1540932240,0.356483287,-0.008773784,-0.554803034,-0.057754517,-0.183395386,-1.138061523,35.21290588,21.85105896,-75.64221191
0,43:48.4,0:39,60,0,43:59.9,1540932240,0.158814416,0.053633668,-0.539686399,-0.010910034,-0.146392822,-1.108505249,35.13182068,21.63401794,-75.6546936
0,43:48.4,0:39,60,0,43:59.9,1540932240,0.00517106,0.240356946,-0.342380517,0.08895874,-0.155059814,-1.140899658,35.61444092,20.91661072,-75.88934326
0,43:48.4,0:39,60,0,44:00.0,1540932240,-0.17423838,0.398862968,-0.059434299,0.170700073,-0.153930664,-1.179519653,35.79017639,21.27015686,-75.94468689
0,43:48.4,0:39,60,0,44:00.0,1540932240,-0.285801127,0.330368063,0.026177009,0.141708374,-0.074829102,-1.224121094,35.79017639,21.27015686,-75.94468689
0,43:48.4,0:39,60,0,44:00.0,1540932240,-0.221736657,0.088477136,0.045138716,0.06791687,0.033279419,-1.28704834,36.06507874,21.76066589,-75.52116394
0,43:48.4,0:39,60,0,44:00.0,1540932240,-0.106872388,-0.034740137,0.018187526,0.016921997,0.07951355,-1.269241333,35.74168396,21.90222168,-75.53347778
0,43:48.4,0:39,60,0,44:00.0,1540932240,-0.028303543,0.017573135,0.001099353,0.017623901,0.150650024,-1.190658569,35.98120117,22.2437439,-75.35160828
0,43:48.4,0:39,60,0,44:00.0,1540932240,0.06784323,0.068036309,0.133925311,0.083328247,0.100021362,-1.155105591,36.1378479,21.66764832,-75.91096497
0,43:48.4,0:39,60,0,44:00.1,1540932240,0.189996304,0.092107024,0.312759508,0.125534058,0.062789917,-1.11541748,36.42842102,21.37739563,-75.82789612
0,43:48.4,0:39,60,0,44:00.1,1540932240,0.254702596,0.043526705,0.404778115,0.119415283,0.025863647,-1.07182312,36.42842102,21.37739563,-75.82789612
0,43:48.4,0:39,60,0,44:00.1,1540932240,0.191749196,-0.039058719,0.38113244,0.089645386,0.000549316,-1.003128052,36.57200623,21.58229065,-75.73440552
0,43:48.4,0:39,60,0,44:00.1,1540932240,0.009471799,-0.147401972,0.323216144,0.068649292,-0.038162231,-0.941635132,36.50756836,21.59425354,-76.04969788
0,43:48.4,0:39,60,0,44:00.1,1540932240,-0.206495119,-0.250018096,0.266385884,0.05607605,-0.063064575,-0.912811279,36.22090149,21.88490295,-75.66416931
0,43:48.4,0:39,60,0,44:00.1,1540932240,-0.324526685,-0.24878665,0.241785999,0.04876709,-0.058135986,-0.897842407,36.27882385,21.87229919,-76.12983704
0,43:48.4,0:39,60,0,44:00.2,1540932240,-0.221159816,-0.142579519,0.211907994,0.029129028,-0.034957886,-0.911605835,36.3611908,22.08946228,-75.96116638
0,43:48.4,0:39,60,0,44:00.2,1540932240,-0.01397334,0.014539794,0.184209521,0.01739502,-0.031463623,-0.896972656,36.3611908,22.08946228,-75.96116638
0,43:48.4,0:39,60,0,44:00.2,1540932240,0.169713935,0.143702841,0.171474285,0.01751709,-0.056915283,-0.851638794,36.74641418,21.93571472,-75.94593811
0,43:48.4,0:39,60,0,44:00.2,1540932240,0.304017682,0.180338616,0.154353355,0.01600647,-0.088363647,-0.806945801,36.79405212,22.0039978,-75.94081116
0,43:48.4,0:39,60,0,44:00.2,1540932240,0.33682756,0.074184483,0.114592626,-0.003890991,-0.114379883,-0.789932251,36.97955322,21.96736145,-75.93208313
0,43:48.4,0:39,60,0,44:00.2,1540932240,0.251039684,0.00734633,-0.005405684,-0.01776123,-0.088653564,-0.718154907,36.78509521,21.69387817,-76.42118835
0,43:48.4,0:39,60,0,44:00.3,1540932240,0.194553505,-0.156661783,0.030814904,0.04145813,-0.162277222,-0.777038574,37.16526794,21.23036194,-76.41777039
0,43:48.4,0:39,60,0,44:00.3,1540932240,0.225687989,-0.082612322,0.101575627,0.027633667,-0.167434692,-0.804229736,36.75575256,20.84507751,-76.45439148
0,43:48.4,0:39,60,0,44:00.3,1540932240,0.225687989,-0.082612322,0.101575627,0.027633667,-0.167434692,-0.804229736,36.75575256,20.84507751,-76.45439148
0,43:48.4,0:39,60,0,44:00.3,1540932240,0.349076769,0.280157356,0.239063715,0.012573242,-0.208755493,-0.874633789,37.04159546,21.254776,-76.42358398
0,43:48.4,0:39,60,0,44:00.3,1540932240,0.349076769,0.280157356,0.239063715,0.012573242,-0.208755493,-0.874633789,37.07192993,21.09396362,-76.19374084
0,43:48.4,0:39,60,0,44:00.3,1540932240,0.459418458,0.48206811,0.332451187,0.006622314,-0.227340698,-0.94178772,37.54981995,21.07650757,-76.4806366
0,43:48.4,0:39,60,0,44:00.4,1540932240,0.517913726,0.449698719,0.442695936,0.019424438,-0.259658813,-1.119949341,38.39776611,19.9760437,-76.78771973
0,43:48.4,0:39,60,0,44:00.4,1540932240,0.517913726,0.449698719,0.442695936,0.019424438,-0.259658813,-1.119949341,38.87124634,19.64889526,-77.00831604
0,43:48.4,0:39,60,0,44:00.4,1540932240,0.365852021,0.32660182,0.485415171,0.037780762,-0.238861084,-1.232452393,38.87124634,19.64889526,-77.00831604
0,43:48.4,0:39,60,0,44:00.4,1540932240,0.12907676,0.134566068,0.389928595,-0.019226074,-0.125259399,-1.315155029,39.21386719,19.73661804,-76.98640442
0,43:48.4,0:39,60,0,44:00.4,1540932240,0.12907676,0.134566068,0.389928595,-0.019226074,-0.125259399,-1.315155029,39.29495239,19.95367432,-76.97392273
0,43:48.4,0:39,60,0,44:00.4,1540932240,0.340386342,0.143714026,-0.240848566,-0.165161133,-0.060562134,-1.406906128,39.17127991,19.97808838,-76.97973633
0,43:48.4,0:39,60,0,44:00.5,1540932240,-0.182194041,0.263967467,-0.387282478,-0.03805542,-0.329193115,-1.196426392,39.59011841,19.27272034,-77.4515686
0,43:48.4,0:39,60,0,44:00.5,1540932240,-0.50836869,0.265352577,-0.221218672,0.012954712,-0.314849854,-1.165344238,39.8735199,19.37290955,-77.12019348
0,43:48.4,0:39,60,0,44:00.5,1540932241,-0.552102056,0.450419104,-0.143877811,-0.014373779,-0.174041748,-1.187652588,39.84512329,19.53390503,-77.11573792
0,43:48.4,0:39,60,0,44:00.5,1540932241,-0.277440399,0.716137599,-0.172529429,-0.091522217,-0.051315308,-1.233901978,39.80545044,20.7853241,-76.83711243
0,43:48.4,0:39,60,0,44:00.5,1540932241,0.106907808,0.775117563,-0.15648628,-0.040130615,-0.066390991,-1.204940796,40.40046692,21.13395691,-76.79177856
0,43:48.4,0:39,60,0,44:00.6,1540932241,0.340314703,0.593351492,-0.162120997,-0.0078125,-0.094177246,-1.114181519,40.85096741,20.26791382,-76.87759399
0,43:48.4,0:39,60,0,44:00.6,1540932241,0.336030476,0.370516814,-0.146331913,0.027252197,-0.140960693,-0.974655151,41.19638062,19.65551758,-77.03770447
0,43:48.4,0:39,60,0,44:00.6,1540932241,0.178527401,0.112403774,-0.136974631,0.009765625,-0.155654907,-0.905227661,41.19638062,19.65551758,-77.03770447
0,43:48.4,0:39,60,0,44:00.6,1540932241,-0.034501518,0.135618016,-0.021241639,0.045043945,-0.142669678,-0.811264038,41.04495239,19.8409729,-76.96098328
0,43:48.4,0:39,60,0,44:00.6,1540932241,-0.286016577,0.129552667,0.205834123,0.041610718,-0.154312134,-0.808776855,41.28382874,20.18243408,-76.85722351
0,43:48.4,0:39,60,0,44:00.6,1540932241,-0.481243063,0.156631156,0.394386194,0.028045654,-0.124786377,-0.813018799,41.30566406,20.41197205,-76.5352478
0,43:48.4,0:39,60,0,44:00.7,1540932241,-0.566604566,0.072720809,0.485326488,0.048431396,-0.086196899,-0.81539917,41.14447021,20.98762512,-76.52259827
0,43:48.4,0:39,60,0,44:00.7,1540932241,-0.568396075,-0.242757786,0.401410548,0.051574707,-0.047470093,-0.817443848,41.51237488,20.6047821,-76.28265381
0,43:48.4,0:39,60,0,44:00.7,1540932241,-0.565281774,-0.61846803,0.221041572,0.061569214,-0.043426514,-0.80355835,41.12260437,20.75810242,-76.84455872
0,43:48.4,0:39,60,0,44:00.7,1540932241,-0.619598809,-0.949045418,-0.018155302,0.053451538,-0.047821045,-0.78314209,41.12260437,20.75810242,-76.84455872
0,43:48.4,0:39,60,0,44:00.7,1540932241,-0.660906834,-0.998949062,-0.152064634,0.021850586,-0.035873413,-0.751571655,40.15686035,21.8835907,-75.84040833
0,43:48.4,0:39,60,0,44:00.7,1540932241,-0.604071514,-0.79392454,-0.167888338,0.014053345,-0.066070557,-0.757583618,39.26455688,22.52494812,-76.25538635
0,43:48.4,0:39,60,0,44:00.8,1540932241,-0.300569154,-0.37391554,-0.170655895,-0.01776123,-0.050354004,-0.8150177,38.70475769,23.02566528,-75.56465149
0,43:48.4,0:39,60,0,44:00.8,1540932241,0.148192398,0.011314973,-0.209910623,-0.037368774,-0.051483154,-0.88734436,38.95933533,22.19523621,-76.90873718
0,43:48.4,0:39,60,0,44:00.8,1540932241,0.429184122,0.272727669,-0.258915451,-0.029922485,-0.09664917,-0.884017944,39.16227722,22.07844543,-76.51174927
0,43:48.4,0:39,60,0,44:00.8,1540932241,0.337627307,0.401236377,-0.258734888,0.005249023,-0.137985229,-0.81288147,39.16227722,22.07844543,-76.51174927
0,43:48.4,0:39,60,0,44:00.8,1540932241,0.060237774,0.440932657,-0.053013684,0.088653564,-0.222854614,-0.781234741,39.29510498,21.66375732,-76.5199585
0,43:48.4,0:39,60,0,44:00.8,1540932241,-0.154424195,0.300723884,0.09143138,0.100631714,-0.232910156,-0.87651062,38.97543335,22.506073,-75.56925964
0,43:48.4,0:39,60,0,44:00.9,1540932241,-0.072612685,0.237518017,0.013160809,0.002090454,-0.167953491,-1.026901245,39.44287109,22.87875366,-75.99832153
0,43:48.4,0:39,60,0,44:00.9,1540932241,0.178716219,0.237937198,-0.153953614,-0.0262146,-0.104476929,-1.157043457,39.59317017,21.99276733,-76.72564697
0,43:48.4,0:39,60,0,44:00.9,1540932241,0.399845142,0.183218559,-0.254735353,0.000320435,-0.124954224,-1.197952271,39.94364929,21.69010925,-76.87399292
0,43:48.4,0:39,60,0,44:00.9,1540932241,0.418652119,0.061786403,-0.227047266,0.071304321,-0.1743927,-1.179794312,39.94364929,21.69010925,-76.87399292
0,43:48.4,0:39,60,0,44:00.9,1540932241,0.216504078,-0.100050435,-0.113686885,0.099884033,-0.218307495,-1.147857666,39.67199707,21.19993591,-76.90701294
0,43:48.4,0:39,60,0,44:00.9,1540932241,0.041379398,-0.202491057,-0.04202335,0.116043091,-0.194274902,-1.241531372,39.25186157,21.90516663,-76.59138489
0,43:48.4,0:39,60,0,44:01.0,1540932241,0.262220966,-0.11551408,0.127226928,0.147064209,-0.192718506,-1.298675537,38.86158752,21.74917603,-76.6184082
0,43:48.4,0:39,60,0,44:01.0,1540932241,0.342482516,0.018715365,0.177703685,0.146530151,-0.209915161,-1.268478394,38.75210571,21.69311523,-76.62646484
0,43:48.4,0:39,60,0,44:01.0,1540932241,0.157366721,0.076573072,0.218512367,0.155899048,-0.235794067,-1.182495117,39.23408508,20.97564697,-76.93919373
0,43:48.4,0:39,60,0,44:01.0,1540932241,0.157366721,0.076573072,0.218512367,0.171600342,-0.198898315,-1.107833862,39.33345032,20.41220093,-76.95475769
0,43:48.4,0:39,60,0,44:01.0,1540932241,-0.266790951,0.052449626,0.236789376,0.149627686,-0.132415771,-1.139022827,39.33345032,20.41220093,-76.95475769
0,43:48.4,0:39,60,0,44:01.0,1540932241,-0.610173349,-0.152593804,0.133816388,0.070800781,0.041534424,-1.222351074,39.1399231,21.53959656,-76.29884338
0,43:48.4,0:39,60,0,44:01.1,1540932241,-0.371093921,-0.090743752,0.051378769,0.032012939,0.115036011,-1.250991821,38.58192444,22.34976196,-75.98678589
0,43:48.4,0:39,60,0,44:01.1,1540932241,-0.050148389,0.055519186,0.031135549,0.045318604,0.11366272,-1.186676025,38.61470032,22.49848938,-76.05752563
0,43:48.4,0:39,60,0,44:01.1,1540932241,0.196909071,0.221476199,0.131941789,0.093048096,0.051971436,-1.093719482,38.97366333,21.80551147,-76.29798889
0,43:48.4,0:39,60,0,44:01.1,1540932241,0.290526374,0.321996149,0.195224089,0.087249756,-0.002059937,-0.981918335,39.11154175,21.70059204,-76.29438782
0,43:48.4,0:39,60,0,44:01.1,1540932241,0.271265328,0.286595015,0.168413514,0.089904785,-0.048690796,-0.905792236,39.24940491,21.59568787,-76.290802
0,43:48.4,0:39,60,0,44:01.1,1540932241,0.271265328,0.286595015,0.168413514,0.089904785,-0.048690796,-0.905792236,39.24940491,21.59568787,-76.290802
0,43:48.4,0:39,60,0,44:01.2,1540932241,0.169035894,0.166705895,0.100825947,0.089050293,-0.076339722,-0.848403931,39.2686615,21.82493591,-76.28121948
0,43:48.4,0:39,60,0,44:01.2,1540932241,0.120703515,0.063532371,0.051450674,0.096343994,-0.044372559,-0.812942505,39.30728149,21.97422791,-75.64906311
0,43:48.4,0:39,60,0,44:01.2,1540932241,0.120703515,0.063532371,0.051450674,0.096343994,-0.044372559,-0.812942505,39.42919922,21.2492218,-76.3719635
0,43:48.4,0:39,60,0,44:01.2,1540932241,0.247883572,-0.05189995,0.211906929,0.05368042,-0.045455933,-0.738540649,39.67263794,21.19999695,-76.8289032
0,43:48.4,0:39,60,0,44:01.2,1540932241,-0.031859396,-0.167581542,0.329626372,0.067626953,-0.077713013,-0.624511719,39.603302,20.59294128,-76.54307556
0,43:48.4,0:39,60,0,44:01.2,1540932241,-0.031859396,-0.167581542,0.329626372,0.067626953,-0.077713013,-0.624511719,39.603302,20.59294128,-76.54307556
0,43:48.4,0:39,60,0,44:01.3,1540932241,-0.571231542,-0.252775533,0.208643758,0.012283325,-0.048950195,-0.656845093,39.01818848,21.56420898,-76.07035828
0,43:48.4,0:39,60,0,44:01.3,1540932241,-0.537422979,-0.278488886,0.066179287,-0.001800537,-0.034439087,-0.773681641,39.04249573,22.10324097,-76.04896545
0,43:48.4,0:39,60,0,44:01.3,1540932241,-0.433354366,-0.3246926,0.010412427,0.019882202,-0.048965454,-0.862533569,38.69987488,22.01551819,-76.07087708
0,43:48.4,0:39,60,0,44:01.3,1540932241,-0.262741614,-0.451869727,0.028419125,0.037155151,-0.092941284,-0.967773438,38.63804626,22.02772522,-76.07377625
0,43:48.4,0:39,60,0,44:01.3,1540932241,-0.126836775,-0.56686742,0.059299543,0.043106079,-0.131866455,-1.015930176,38.15248108,21.7351532,-76.11108398
0,43:48.4,0:39,60,0,44:01.3,1540932241,-0.033321205,-0.612986979,0.007818775,-0.003479004,-0.153610229,-1.021560669,38.15248108,21.7351532,-76.11108398
0,43:48.4,0:39,60,0,44:01.4,1540932241,0.046861249,-0.523546045,-0.101318099,-0.048904419,-0.177078247,-1.016220093,37.47407532,22.57006836,-75.41438293
0,43:48.4,0:39,60,0,44:01.4,1540932241,0.128460238,-0.275319191,-0.160999806,-0.047027588,-0.211273193,-1.033996582,36.91690063,22.67991638,-75.5186615
0,43:48.4,0:39,60,0,44:01.4,1540932241,0.198556502,-0.002361958,-0.156396532,-0.020172119,-0.228591919,-1.094772339,37.02326965,22.42640686,-75.28811646
0,43:48.4,0:39,60,0,44:01.4,1540932241,0.307034777,0.197878994,-0.181876326,-0.014953613,-0.214096069,-1.206878662,37.36167908,21.50404358,-75.6943512
0,43:48.4,0:39,60,0,44:01.4,1540932241,0.398930879,0.313990687,-0.226731415,-0.012435913,-0.196411133,-1.274749756,37.18907166,21.46005249,-75.86151123
0,43:48.4,0:39,60,0,44:01.4,1540932241,0.482774647,0.364132951,-0.254532154,0.014984131,-0.188827515,-1.304718018,37.18907166,21.46005249,-75.86151123
0,43:48.4,0:39,60,0,44:01.5,1540932241,0.570105558,0.337460327,-0.285641071,0.042434692,-0.1822052,-1.318405151,37.61161804,21.45545959,-75.37033081
0,43:48.4,0:39,60,0,44:01.5,1540932241,0.576267047,0.315846112,-0.304944728,0.055847168,-0.15788269,-1.280380249,37.44880676,21.02128601,-75.47341919
0,43:48.4,0:39,60,0,44:01.5,1540932241,0.409620541,0.320527682,-0.264206086,0.09046936,-0.208755493,-1.213653564,37.54408264,21.15785217,-75.46315002
0,43:48.4,0:39,60,0,44:01.5,1540932242,0.14946166,0.353262726,-0.252323594,0.083450317,-0.194824219,-1.158966064,37.71247864,20.19174194,-75.72413635
0,43:48.4,0:39,60,0,44:01.5,1540932242,-0.007054447,0.305019563,-0.254487146,0.051452637,-0.200027466,-1.216323853,38.18789673,19.86479187,-75.71044922
0,43:48.4,0:39,60,0,44:01.5,1540932242,-0.043019639,0.295587445,-0.243781505,0.044815063,-0.188064575,-1.28213501,38.18789673,19.86479187,-75.71044922
0,43:48.4,0:39,60,0,44:01.6,1540932242,-0.022272815,0.379582481,-0.200848419,0.0650177,-0.175842285,-1.308517456,38.17875671,20.25505066,-75.69641113
0,43:48.4,0:39,60,0,44:01.6,1540932242,0.064842114,0.552958262,-0.218860176,0.057266235,-0.098587036,-1.303009033,38.10319519,21.04821777,-75.12458801
0,43:48.4,0:39,60,0,44:01.6,1540932242,0.314602948,0.529087284,-0.258571637,0.082305908,-0.050064087,-1.335189819,38.38088989,20.83856201,-74.88311768
0,43:48.4,0:39,60,0,44:01.6,1540932242,0.604519458,0.284362488,-0.343541389,0.05947876,-0.007705688,-1.303512573,38.84165955,19.8916626,-75.43971252
0,43:48.4,0:39,60,0,44:01.6,1540932242,0.768338486,-0.017683123,-0.3974965,0.045333862,-0.012420654,-1.175430298,38.95831299,19.55728149,-75.67999268
0,43:48.4,0:39,60,0,44:01.6,1540932242,0.732055579,-0.262129886,-0.309978635,0.075195313,-0.093063354,-1.012695313,38.79959106,18.4230957,-75.80891418
0,43:48.4,0:39,60,0,44:01.7,1540932242,0.620900296,-0.262928568,-0.113985159,0.104827881,-0.161102295,-0.874389648,38.79959106,18.4230957,-75.80891418
0,43:48.4,0:39,60,0,44:01.7,1540932242,0.52044293,-0.12985174,0.11750932,0.079391479,-0.236923218,-0.80380249,38.46902466,18.95509338,-75.57290649
0,43:48.4,0:39,60,0,44:01.7,1540932242,0.281717702,-0.053117813,0.164779364,0.021972656,-0.227996826,-0.73147583,38.28027344,18.9914093,-75.97212219
0,43:48.4,0:39,60,0,44:01.7,1540932242,-0.02977494,0.000896154,0.117803067,0.005264282,-0.179916382,-0.679214478,38.37553406,19.12797546,-75.96185303
0,43:48.4,0:39,60,0,44:01.7,1540932242,-0.354536516,-0.01409984,0.049327602,0.00163269,-0.145721436,-0.697525024,38.78031921,18.19384766,-75.81848145
0,43:48.4,0:39,60,0,44:01.7,1540932242,-0.580354201,-0.038844069,0.017225592,0.041763306,-0.093658447,-0.75050354,38.71260071,18.59661865,-75.41687012
0,43:48.4,0:39,60,0,44:01.8,1540932242,-0.525954342,-0.197216932,0.000954211,0.058792114,-0.05696106,-0.876937866,38.71260071,18.59661865,-75.41687012
