SessionID,SessionDate,SessionDuration,SessionFrequency,RecordID,Timestamp,timeIntervalSince1970,GyroX,GyroY,GyroZ,AccX,AccY,AccZ,MagX,MagY,MagZ,WatchTimestamp,WatchtImeIntervalSince1970,WatchGyroX,WatchGyroY,WatchGyroZ,WatchAccX,WatchAccY,WatchAccZ
0,2018-10-30 16:43:48.4180,00:39,60,0,2018-10-30 16:43:48.4360,1540932228.436173,0.14082822475949913,0.5238991801692598,0.10341507250162996,0.0200653076171875,-0.0712432861328125,-1.0979461669921875,44.269256591796875,11.47540283203125,-60.86079406738281,,,,,,,,,,
0,2018-10-30 16:43:48.4180,00:39,60,0,2018-10-30 16:43:48.4520,1540932228.451556,0.14339338152146344,0.31575369990360974,-0.05425897773316539,0.0245513916015625,-0.0656890869140625,-1.082550048828125,44.40777587890625,11.370559692382812,-60.779083251953125,,,,,,,,,,
0,2018-10-30 16:43:48.4180,00:39,60,0,2018-10-30 16:43:48.4700,1540932228.469902,0.0005352953791059269,0.011582087580754607,-0.1927409575723047,0.0336151123046875,-0.0891265869140625,-1.06268310546875,44.2969970703125,11.314361572265625,-60.943328857421875,,,,,,,,,,
0,2018-10-30 16:43:48.4180,00:39,60,0,2018-10-30 16:43:48.4870,1540932228.486991,-0.1565025256712695,-0.11625390580079295,-0.3053013252572668,0.0272064208984375,-0.11212158203125,-0.995697021484375,44.37872314453125,11.531463623046875,-60.85273742675781,,,,,,,,,,
0,2018-10-30 16:43:48.4180,00:39,60,0,2018-10-30 16:43:48.5040,1540932228.503581,-0.23333632101670956,-0.11315185576306866,-0.3556095035132996,0.0296173095703125,-0.1534423828125,-0.9487457275390625,44.37872314453125,11.531463623046875,-60.85273742675781,,,,,,,,,,
0,2018-10-30 16:43:48.4180,00:39,60,0,2018-10-30 16:43:48.5210,1540932228.520894,-0.19918873688749555,0.046465769435266514,-0.3222241160880663,0.0296173095703125,-0.1534423828125,-0.9487457275390625,44.32194519042969,11.853439331054688,-60.843841552734375,,,,,,,,,,
0,2018-10-30 16:43:48.4180,00:39,60,0,2018-10-30 16:43:48.5380,1540932228.537832,-0.09418828458894142,0.2387361464429542,-0.2395558674264806,0.0295867919921875,-0.1702117919921875,-0.9624786376953125,44.32194519042969,11.853439331054688,-60.843841552734375,,,,,,,,,,
0,2018-10-30 16:43:48.4180,00:39,60,0,2018-10-30 16:43:48.5540,1540932228.554472,-0.008995359213960642,0.34360770174474853,-0.16234496847068533,0.0659942626953125,-0.195465087890625,-1.0234222412109375,44.57188415527344,11.804855346679688,-60.51982116699219,,,,,,,,,,
0,2018-10-30 16:43:48.4180,00:39,60,0,2018-10-30 16:43:48.5710,1540932228.570941,0.06951090129604919,0.2950620034981301,-0.11209324922976216,0.0659942626953125,-0.195465087890625,-1.0234222412109375,44.80244445800781,11.83624267578125,-60.81834411621094,,,,,,,,,,
0,2018-10-30 16:43:48.4180,00:39,60,0,2018-10-30 16:43:48.5880,1540932228.587641,0.10266592528699066,0.23735849321105623,-0.09718034607364545,0.066497802734375,-0.1887969970703125,-1.01947021484375,44.9049072265625,11.582382202148438,-61.05641174316406,,,,,,,,,,
0,2018-10-30 16:43:48.4180,00:39,60,0,2018-10-30 16:43:48.6040,1540932228.604449,0.08100510456083118,0.026299248396750494,-0.27948197848894857,0.024078369140625,-0.1505126953125,-1.0041046142578125,44.9049072265625,11.582382202148438,-61.05641174316406,,,,,,,,,,
0,2018-10-30 16:43:48.4180,00:39,60,0,2018-10-30 16:43:48.6210,1540932228.620904,0.08100510456083118,0.026299248396750494,-0.27948197848894857,0.024078369140625,-0.1505126953125,-1.0041046142578125,44.97193908691406,11.5706787109375,-60.4287109375,,,,,,,,,,
0,2018-10-30 16:43:48.4180,00:39,60,0,2018-10-30 16:43:48.6380,1540932228.637881,0.09811564824848128,-0.08481235965520846,-0.39420536561127295,0.0072021484375,-0.19549560546875,-0.9597320556640625,44.98094177246094,11.489669799804688,-61.05572509765625,,,,,,,,,,
0,2018-10-30 16:43:48.4180,00:39,60,0,2018-10-30 16:43:48.6540,1540932228.6543422,0.14603284047784099,0.04076846891526,-0.5375574681358402,-0.026214599609375,-0.231475830078125,-0.91387939453125,44.87913513183594,11.743621826171875,-60.73957824707031,,,,,,,,,,
0,2018-10-30 16:43:48.4180,00:39,60,0,2018-10-30 16:43:48.6720,1540932228.672195,0.14603284047784099,0.04076846891526,-0.5375574681358402,-0.026214599609375,-0.231475830078125,-0.91387939453125,44.638153076171875,12.102340698242188,-60.58319091796875,,,,,,,,,,
0,2018-10-30 16:43:48.4180,00:39,60,0,2018-10-30 16:43:48.6890,1540932228.688889,0.10958002410905439,0.2011365729087795,-0.522358807794758,-0.010467529296875,-0.2931976318359375,-0.92706298828125,44.6683349609375,12.250778198242188,-60.96632385253906,,,,,,,,,,
0,2018-10-30 16:43:48.4180,00:39,60,0,2018-10-30 16:43:48.7040,1540932228.704492,-0.011387144188960807,0.1754051104564339,-0.2889135634894642,0.030242919921875,-0.289306640625,-0.993255615234375,44.85772705078125,12.21453857421875,-60.489013671875,,,,,,,,,,
0,2018-10-30 16:43:48.4180,00:39,60,0,2018-10-30 16:43:48.7210,1540932228.721009,-0.011387144188960807,0.1754051104564339,-0.2889135634894642,0.030242919921875,-0.289306640625,-0.993255615234375,44.85772705078125,12.21453857421875,-60.489013671875,,,,,,,,,,
0,2018-10-30 16:43:48.4180,00:39,60,0,2018-10-30 16:43:48.7380,1540932228.7380161,-0.09993991359518556,-0.36041597664867464,-0.24136442012275341,0.006988525390625,-0.259765625,-1.060394287109375,44.76490783691406,12.387481689453125,-60.79986572265625,,,,,,,,,,
0,2018-10-30 16:43:48.4180,00:39,60,0,2018-10-30 16:43:48.7540,1540932228.754487,-0.08169512959927071,-0.46714348891414514,-0.3732164604281405,-0.0333099365234375,-0.2324676513671875,-1.0311431884765625,44.751373291015625,12.468048095703125,-60.71954345703125,,,,,,,,,,
0,2018-10-30 16:43:48.4180,00:39,60,0,2018-10-30 16:43:48.7710,1540932228.771133,-0.08169512959927071,-0.46714348891414514,-0.3732164604281405,-0.0490264892578125,-0.2450714111328125,-1.0343170166015625,44.565216064453125,12.504608154296875,-60.806365966796875,,,,,,,,,,
0,2018-10-30 16:43:48.4180,00:39,60,0,2018-10-30 16:43:48.7880,1540932228.787637,-0.0931219548884737,-0.5071239284628507,-0.6259864005513762,-0.048614501953125,-0.2768402099609375,-0.9933929443359375,44.416900634765625,12.999649047851562,-60.952117919921875,,,,,,,,,,
0,2018-10-30 16:43:48.4180,00:39,60,0,2018-10-30 16:43:48.8040,1540932228.804313,-0.0931219548884737,-0.5071239284628507,-0.6259864005513762,-0.048614501953125,-0.2768402099609375,-0.9933929443359375,44.30873107910156,12.943695068359375,-60.80397033691406,,,,,,,,,,
0,2018-10-30 16:43:48.4180,00:39,60,0,2018-10-30 16:43:48.8210,1540932228.8211231,-0.21012740474888703,-0.2534312030219025,-0.4939292968420531,0.0020904541015625,-0.3023223876953125,-0.9523162841796875,44.30873107910156,12.943695068359375,-60.80397033691406,,,,,,,,,,
0,2018-10-30 16:43:48.4180,00:39,60,0,2018-10-30 16:43:48.8380,1540932228.837878,-0.3020687803261286,0.15986982655356569,-0.03399764815984255,0.0013580322265625,-0.2842254638671875,-0.9985809326171875,44.46714782714844,13.068191528320312,-60.634613037109375,,,,,,,,,,
0,2018-10-30 16:43:48.4180,00:39,60,0,2018-10-30 16:43:48.8550,1540932228.854857,-0.19422220777060678,0.09583571603926444,0.032290828217210764,0.0025634765625,-0.242767333984375,-1.0574493408203125,44.38197326660156,13.551132202148438,-60.62126159667969,,,,,,,,,,
0,2018-10-30 16:43:48.4180,00:39,60,0,2018-10-30 16:43:48.8710,1540932228.871172,-0.05108395708157292,-0.05563769622949941,-0.028969600021772946,-0.0039520263671875,-0.20452880859375,-1.083526611328125,44.64921569824219,13.731613159179688,-60.52192687988281,,,,,,,,,,
0,2018-10-30 16:43:48.4180,00:39,60,0,2018-10-30 16:43:48.8880,1540932228.887772,0.0208413660587421,-0.1598541139031342,-0.10621751691672034,-0.010040283203125,-0.195068359375,-1.0634765625,44.55638122558594,13.904556274414062,-60.83277893066406,,,,,,,,,,
0,2018-10-30 16:43:48.4180,00:39,60,0,2018-10-30 16:43:48.9050,1540932228.904568,0.0208413660587421,-0.1598541139031342,-0.10621751691672034,-0.0253753662109375,-0.2098388671875,-1.0412750244140625,44.446258544921875,13.848419189453125,-60.918914794921875,,,,,,,,,,
0,2018-10-30 16:43:48.4180,00:39,60,0,2018-10-30 16:43:48.9210,1540932228.92114,0.0722670067081722,-0.1894740578631045,-0.12554194641855332,-0.02252197265625,-0.2274169921875,-1.0482330322265625,44.446258544921875,13.848419189453125,-60.918914794921875,,,,,,,,,,
0,2018-10-30 16:43:48.4180,00:39,60,0,2018-10-30 16:43:48.9390,1540932228.938702,0.08302857435707339,-0.160485283081483,-0.09766637297258492,-0.01837158203125,-0.240203857421875,-1.0508880615234375,44.68070983886719,13.88018798828125,-60.748870849609375,,,,,,,,,,
0,2018-10-30 16:43:48.4180,00:39,60,0,2018-10-30 16:43:48.9540,1540932228.954259,0.08302857435707339,-0.160485283081483,-0.09766637297258492,-0.0089874267578125,-0.2449188232421875,-1.0565032958984375,44.8487548828125,13.923751831054688,-61.128387451171875,,,,,,,,,,
0,2018-10-30 16:43:48.4180,00:39,60,0,2018-10-30 16:43:48.9710,1540932228.970869,0.12309796348618758,-0.029286249875383367,-0.004349208376208404,0.0069580078125,-0.24652099609375,-1.0534515380859375,44.621978759765625,14.20196533203125,-60.974273681640625,,,,,,,,,,
0,2018-10-30 16:43:48.4180,00:39,60,0,2018-10-30 16:43:48.9880,1540932228.987702,0.12544873578040053,0.012582637202297377,0.06852047168664872,0.0246429443359375,-0.2591705322265625,-1.0632476806640625,44.88288879394531,14.072586059570312,-61.042938232421875,,,,,,,,,,
0,2018-10-30 16:43:48.4180,00:39,60,0,2018-10-30 16:43:49.0040,1540932229.004215,0.13594505258472983,0.01983895222443628,0.122069983305417,0.0221099853515625,-0.2661590576171875,-1.076324462890625,45.09986877441406,14.18450927734375,-61.26112365722656,,,,,,,,,,
0,2018-10-30 16:43:48.4180,00:39,60,0,2018-10-30 16:43:49.0210,1540932229.020864,0.11692369081494788,0.016755277998233526,0.12742506762534833,0.0209808349609375,-0.253448486328125,-1.084320068359375,45.09986877441406,14.18450927734375,-61.26112365722656,,,,,,,,,,
0,2018-10-30 16:43:48.4180,00:39,60,0,2018-10-30 16:43:49.0380,1540932229.037706,0.05681241658633336,0.011992747020844826,0.1102998765517028,0.00531005859375,-0.242523193359375,-1.074554443359375,45.272491455078125,14.228500366210938,-61.093994140625,,,,,,,,,,
0,2018-10-30 16:43:48.4180,00:39,60,0,2018-10-30 16:43:49.0540,1540932229.054405,-0.047601341324076306,0.01293497341451486,0.12531824088698665,-0.001739501953125,-0.2301788330078125,-1.086151123046875,45.18290710449219,14.401779174804688,-61.01435852050781,,,,,,,,,,
0,2018-10-30 16:43:48.4180,00:39,60,0,2018-10-30 16:43:49.0710,1540932229.070879,-0.1776437636687545,-0.013032711426520767,0.16922284830192397,-0.0013885498046875,-0.2129669189453125,-1.117919921875,45.605316162109375,14.7064208984375,-61.13615417480469,,,,,,,,,,
0,2018-10-30 16:43:48.4180,00:39,60,0,2018-10-30 16:43:49.0900,1540932229.0895472,-0.29913051469544416,0.0916465636445698,0.2496958532769573,0.0100555419921875,-0.179290771484375,-1.1330108642578125,45.633697509765625,14.545440673828125,-61.140594482421875,,,,,,,,,,
0,2018-10-30 16:43:48.4180,00:39,60,0,2018-10-30 16:43:49.1050,1540932229.1049771,-0.31941767693134077,0.191070889252716,0.3194293948401371,0.0050506591796875,-0.1548919677734375,-1.1689453125,45.87060546875,14.886734008789062,-61.27113342285156,,,,,,,,,,
0,2018-10-30 16:43:48.4180,00:39,60,0,2018-10-30 16:43:49.1210,1540932229.120994,-0.22311857086240255,0.12085931027386698,0.3353825287180388,-0.0002593994140625,-0.131439208984375,-1.2174530029296875,46.152679443359375,14.98675537109375,-61.09593200683594,,,,,,,,,,
0,2018-10-30 16:43:48.4180,00:39,60,0,2018-10-30 16:43:49.1380,1540932229.138164,-0.02120462123142891,-0.06886322051894192,0.23122629848503978,-0.008880615234375,-0.103485107421875,-1.2432403564453125,46.152679443359375,14.98675537109375,-61.09593200683594,,,,,,,,,,
0,2018-10-30 16:43:48.4180,00:39,60,0,2018-10-30 16:43:49.1550,1540932229.154684,0.23449612767143907,-0.27395751712368815,0.05529042002335308,-0.02288818359375,-0.0881195068359375,-1.2102813720703125,46.157745361328125,15.296524047851562,-61.08412170410156,,,,,,,,,,
0,2018-10-30 16:43:48.4180,00:39,60,0,2018-10-30 16:43:49.1710,1540932229.171054,0.4240894951513791,-0.4363930330714362,-0.08095503713233769,-0.0064239501953125,-0.0831451416015625,-1.1277313232421875,46.106201171875,15.227859497070312,-61.557830810546875,,,,,,,,,,
0,2018-10-30 16:43:48.4180,00:39,60,0,2018-10-30 16:43:49.1880,1540932229.187732,0.4401680639166235,-0.517689487455522,-0.07570488135935548,0.00927734375,-0.108551025390625,-1.05010986328125,46.131988525390625,15.066604614257812,-61.87467956542969,,,,,,,,,,
0,2018-10-30 16:43:48.4180,00:39,60,0,2018-10-30 16:43:49.2040,1540932229.2044392,0.3109062140874475,-0.4444693353932105,0.04649479789114838,0.0118865966796875,-0.1334228515625,-0.973236083984375,45.857421875,15.5858154296875,-62.33863830566406,,,,,,,,,,
0,2018-10-30 16:43:48.4180,00:39,60,0,2018-10-30 16:43:49.2210,1540932229.2211661,0.185389834015359,-0.31602880444421494,0.14520273316606327,-0.0060272216796875,-0.1272735595703125,-0.926605224609375,46.07002258300781,15.388076782226562,-62.49055480957031,,,,,,,,,,
0,2018-10-30 16:43:48.4180,00:39,60,0,2018-10-30 16:43:49.2380,1540932229.2376761,0.12856170477859416,-0.1911582409364706,0.16036251135523033,-0.0126190185546875,-0.0910186767578125,-0.9154510498046875,46.07002258300781,15.388076782226562,-62.49055480957031,,,,,,,,,,
0,2018-10-30 16:43:48.4180,00:39,60,0,2018-10-30 16:43:49.2540,1540932229.2544231,0.1215794290326244,-0.035416580388636765,0.17983181682036362,0.0029449462890625,-0.0587615966796875,-0.9096832275390625,46.02238464355469,15.319793701171875,-62.49568176269531,,,,,,,,,,
0,2018-10-30 16:43:48.4180,00:39,60,0,2018-10-30 16:43:49.2710,1540932229.27109,0.14199016194310068,0.12853081210994924,0.24535170490682007,0.0236053466796875,-0.0347442626953125,-0.9190673828125,46.10346984863281,15.536849975585938,-62.48320007324219,,,,,,,,,,
0,2018-10-30 16:43:48.4180,00:39,60,0,2018-10-30 16:43:49.2880,1540932229.287795,0.2006862323684471,0.21214874401625716,0.29148777499913475,0.0180816650390625,-0.0077362060546875,-0.9539642333984375,46.50093078613281,15.302398681640625,-62.70448303222656,,,,,,,,,,
0,2018-10-30 16:43:48.4180,00:39,60,0,2018-10-30 16:43:49.3060,1540932229.305574,0.2749138582711356,0.2430214389530007,0.2368940379169464,0.0180816650390625,-0.0077362060546875,-0.9539642333984375,46.75267028808594,15.563262939453125,-62.75914001464844,,,,,,,,,,
0,2018-10-30 16:43:48.4180,00:39,60,0,2018-10-30 16:43:49.3210,1540932229.3210611,0.345606137826744,0.211605991786099,0.07942158897667007,0.00323486328125,-0.000274658203125,-0.959197998046875,46.71073913574219,15.804779052734375,-62.67436218261719,,,,,,,,,,
0,2018-10-30 16:43:48.4180,00:39,60,0,2018-10-30 16:43:49.3380,1540932229.337995,0.4315151872188471,0.10668783116522833,-0.12633397052674286,-0.0047454833984375,-0.0359039306640625,-0.9906005859375,46.92462158203125,15.607192993164062,-62.67008972167969,,,,,,,,,,
0,2018-10-30 16:43:48.4180,00:39,60,0,2018-10-30 16:43:49.3540,1540932229.354409,0.4816052525816024,0.014921425271604965,-0.2892302133430746,-0.0047454833984375,-0.0359039306640625,-0.9906005859375,46.92462158203125,15.607192993164062,-62.67008972167969,,,,,,,,,,
0,2018-10-30 16:43:48.4180,00:39,60,0,2018-10-30 16:43:49.3710,1540932229.371166,0.4767042372275296,0.03051370082180089,-0.38987080462106,0.0084991455078125,-0.0592193603515625,-0.96893310546875,46.92201232910156,15.60693359375,-62.98248291015625,,,,,,,,,,
0,2018-10-30 16:43:48.4180,00:39,60,0,2018-10-30 16:43:49.3880,1540932229.388073,0.17823711595962416,-0.06221011148370596,-0.2881814605058014,0.0967254638671875,-0.1396636962890625,-0.9607696533203125,46.98567199707031,15.904144287109375,-63.35823059082031,,,,,,,,,,
0,2018-10-30 16:43:48.4180,00:39,60,0,2018-10-30 16:43:49.4040,1540932229.404433,0.17823711595962416,-0.06221011148370596,-0.2881814605058014,0.0967254638671875,-0.1396636962890625,-0.9607696533203125,47.01911926269531,16.05291748046875,-63.35089111328125,,,,,,,,,,
0,2018-10-30 16:43:48.4180,00:39,60,0,2018-10-30 16:43:49.4210,1540932229.4211721,-0.043814858886201645,-0.18323027668741373,-0.05590028391298123,0.1029052734375,-0.1850738525390625,-0.9655609130859375,46.77616882324219,16.411468505859375,-63.42881774902344,,,,,,,,,,
0,2018-10-30 16:43:48.4180,00:39,60,0,2018-10-30 16:43:49.4380,1540932229.437807,-0.20282262019490868,-0.3413860927634044,0.115280786738478,0.1029052734375,-0.1850738525390625,-0.9655609130859375,46.746490478515625,16.57232666015625,-63.58056640625,,,,,,,,,,
0,2018-10-30 16:43:48.4180,00:39,60,0,2018-10-30 16:43:49.4540,1540932229.4544501,-0.2576248827904502,-0.4479436953513279,0.11623339946039934,0.06585693359375,-0.17095947265625,-0.94708251953125,46.746490478515625,16.57232666015625,-63.58056640625,,,,,,,,,,
0,2018-10-30 16:43:48.4180,00:39,60,0,2018-10-30 16:43:49.4710,1540932229.4711552,-0.26332857489707295,-0.40000253467215746,0.042404448772895675,0.034210205078125,-0.1982879638671875,-0.874298095703125,46.516448974609375,16.850234985351562,-63.816925048828125,,,,,,,,,,
0,2018-10-30 16:43:48.4180,00:39,60,0,2018-10-30 16:43:49.4880,1540932229.487889,-0.24532533961202826,-0.28015096455477645,0.05111484975021784,0.034210205078125,-0.1982879638671875,-0.874298095703125,46.47386169433594,17.091705322265625,-63.81024169921875,,,,,,,,,,
0,2018-10-30 16:43:48.4180,00:39,60,0,2018-10-30 16:43:49.5040,1540932229.504499,-0.19461502403139347,-0.14037548737418565,0.13801486138393942,0.028106689453125,-0.25225830078125,-0.8722076416015625,46.53880310058594,17.389053344726562,-64.02978515625,,,,,,,,,,
0,2018-10-30 16:43:48.4180,00:39,60,0,2018-10-30 16:43:49.5230,1540932229.5225968,0.19752452752230504,0.12312725825817845,0.3813311122696119,0.0561981201171875,-0.28167724609375,-0.9574432373046875,46.714508056640625,17.74261474609375,-64.08512878417969,,,,,,,,,,
0,2018-10-30 16:43:48.4180,00:39,60,0,2018-10-30 16:43:49.5380,1540932229.5378861,0.19752452752230504,0.12312725825817845,0.3813311122696119,0.0561981201171875,-0.28167724609375,-0.9574432373046875,46.880126953125,17.476654052734375,-64.16407775878906,,,,,,,,,,
0,2018-10-30 16:43:48.4180,00:39,60,0,2018-10-30 16:43:49.5550,1540932229.554527,0.48937129663638246,0.12527136925180127,0.49691656463679496,0.0713653564453125,-0.273468017578125,-1.03472900390625,46.880126953125,17.476654052734375,-64.16407775878906,,,,,,,,,,
0,2018-10-30 16:43:48.4180,00:39,60,0,2018-10-30 16:43:49.5710,1540932229.571384,0.7562482673698769,0.007307447715068422,0.4142504465040814,0.02301025390625,-0.2486724853515625,-0.996795654296875,47.083587646484375,17.669158935546875,-64.30197143554688,,,,,,,,,,
0,2018-10-30 16:43:48.4180,00:39,60,0,2018-10-30 16:43:49.5880,1540932229.5879068,0.7562482673698769,0.007307447715068422,0.4142504465040814,0.02301025390625,-0.2486724853515625,-0.996795654296875,47.059783935546875,17.439437866210938,-64.85823059082031,,,,,,,,,,
0,2018-10-30 16:43:48.4180,00:39,60,0,2018-10-30 16:43:49.6040,1540932229.604478,0.6796120785773208,0.1348955007991296,0.33839509654313643,-0.0559234619140625,-0.29632568359375,-0.9918060302734375,47.56361389160156,16.951507568359375,-64.84898376464844,,,,,,,,,,
0,2018-10-30 16:43:48.4180,00:39,60,0,2018-10-30 16:43:49.6210,1540932229.621465,0.439177367991114,-0.21295541551044217,0.2673470186658935,0.00836181640625,-0.2714385986328125,-1.0216522216796875,47.48808288574219,17.353530883789062,-65.38455200195312,,,,,,,,,,
0,2018-10-30 16:43:48.4180,00:39,60,0,2018-10-30 16:43:49.6380,1540932229.637953,0.439177367991114,-0.21295541551044217,0.2673470186658935,0.00836181640625,-0.2714385986328125,-1.0216522216796875,47.5145263671875,17.192337036132812,-65.62327575683594,,,,,,,,,,
0,2018-10-30 16:43:48.4180,00:39,60,0,2018-10-30 16:43:49.6550,1540932229.654501,0.2960779994539953,-0.21850198111275018,0.10460364129613232,-0.0573577880859375,-0.240081787109375,-0.9974517822265625,47.5145263671875,17.192337036132812,-65.62327575683594,,,,,,,,,,
0,2018-10-30 16:43:48.4180,00:39,60,0,2018-10-30 16:43:49.6710,1540932229.671329,0.38107624775329135,0.24542946921065037,-0.0790327674575185,-0.1101226806640625,-0.1863555908203125,-0.973358154296875,47.3419189453125,17.148345947265625,-65.79043579101562,,,,,,,,,,
0,2018-10-30 16:43:48.4180,00:39,60,0,2018-10-30 16:43:49.6880,1540932229.687883,0.38107624775329135,0.24542946921065037,-0.0790327674575185,-0.1167449951171875,-0.1676788330078125,-0.991180419921875,47.41664123535156,17.055511474609375,-65.94593811035156,,,,,,,,,,
0,2018-10-30 16:43:48.4180,00:39,60,0,2018-10-30 16:43:49.7050,1540932229.7045012,0.3956045904480006,0.8280998209479968,-0.3042693503348611,-0.05853271484375,-0.1969757080078125,-1.033935546875,47.85260009765625,17.279617309570312,-66.14805603027344,,,,,,,,,,
0,2018-10-30 16:43:48.4180,00:39,60,0,2018-10-30 16:43:49.7210,1540932229.72142,0.25550793603994626,0.6313729101721706,-0.2702107157860557,0.00726318359375,-0.2475433349609375,-1.105926513671875,48.164886474609375,17.52813720703125,-66.35598754882812,,,,,,,,,,
0,2018-10-30 16:43:48.4180,00:39,60,0,2018-10-30 16:43:49.7390,1540932229.7391238,0.25550793603994626,0.6313729101721706,-0.2702107157860557,0.0502777099609375,-0.269073486328125,-1.167266845703125,48.1087646484375,17.850143432617188,-66.26899719238281,,,,,,,,,,
0,2018-10-30 16:43:48.4180,00:39,60,0,2018-10-30 16:43:49.7550,1540932229.754648,-0.16316655366697477,-0.46581110942077847,-0.24040834529141497,0.0239105224609375,-0.281036376953125,-1.1734466552734375,47.75439453125,18.152435302734375,-66.58926391601562,,,,,,,,,,
0,2018-10-30 16:43:48.4180,00:39,60,0,2018-10-30 16:43:49.7710,1540932229.771275,-0.43405104920882054,-0.7918832269679003,-0.2750129278636866,-0.0147705078125,-0.273223876953125,-1.108154296875,47.75439453125,18.152435302734375,-66.58926391601562,,,,,,,,,,
0,2018-10-30 16:43:48.4180,00:39,60,0,2018-10-30 16:43:49.7880,1540932229.787885,-0.658311050914431,-0.7487709099772615,-0.23956731901916795,-0.040985107421875,-0.261383056640625,-1.0304107666015625,47.20097351074219,18.5718994140625,-66.83793640136719,,,,,,,,,,
0,2018-10-30 16:43:48.4180,00:39,60,0,2018-10-30 16:43:49.8050,1540932229.804641,-0.7269652132878017,-0.5117535677018444,-0.11075501078199734,-0.052703857421875,-0.2506561279296875,-1.0154266357421875,46.65519714355469,19.301361083984375,-66.76239013671875,,,,,,,,,,
0,2018-10-30 16:43:48.4180,00:39,60,0,2018-10-30 16:43:49.8220,1540932229.821549,-0.5651856339165402,-0.21636932171181472,0.015932094905290035,-0.05352783203125,-0.197662353515625,-1.04052734375,46.519805908203125,19.715774536132812,-67.06655883789062,,,,,,,,,,
0,2018-10-30 16:43:48.4180,00:39,60,0,2018-10-30 16:43:49.8380,1540932229.838081,-0.2445634092241566,0.0045534728318174815,-0.0106441222448287,-0.086700439453125,-0.1282501220703125,-1.0811004638671875,46.34504699707031,20.371994018554688,-66.97357177734375,,,,,,,,,,
0,2018-10-30 16:43:48.4180,00:39,60,0,2018-10-30 16:43:49.8550,1540932229.854706,0.0046011434153299,0.10776774298725546,-0.18298553218323546,-0.1049041748046875,-0.0651092529296875,-1.0611572265625,46.01971435546875,20.513351440429688,-67.22019958496094,,,,,,,,,,
0,2018-10-30 16:43:48.4180,00:39,60,0,2018-10-30 16:43:49.8710,1540932229.871355,0.07530380929918955,0.07743380553903492,-0.3404566495429668,-0.0950927734375,-0.05755615234375,-1.0117034912109375,46.01971435546875,20.513351440429688,-67.22019958496094,,,,,,,,,,
0,2018-10-30 16:43:48.4180,00:39,60,0,2018-10-30 16:43:49.8880,1540932229.888039,0.02415274055814663,0.012109393476590296,-0.3812176616071745,-0.0588226318359375,-0.0876617431640625,-0.96405029296875,45.94303894042969,20.605987548828125,-67.29896545410156,,,,,,,,,,
0,2018-10-30 16:43:48.4180,00:39,60,0,2018-10-30 16:43:49.9050,1540932229.9047441,0.0029515814361348197,0.009982593030053017,-0.33945157254757086,-0.0439605712890625,-0.125,-0.9449005126953125,45.86700439453125,20.698699951171875,-67.29965209960938,,,,,,,,,,
0,2018-10-30 16:43:48.4180,00:39,60,0,2018-10-30 16:43:49.9210,1540932229.921437,0.030029271819515473,0.10668197221083016,-0.24296125151236495,-0.0476837158203125,-0.1536865234375,-0.9314727783203125,45.361236572265625,21.186447143554688,-67.54318237304688,,,,,,,,,,
0,2018-10-30 16:43:48.4180,00:39,60,0,2018-10-30 16:43:49.9380,1540932229.938048,0.05923243106888837,0.20658007417690147,-0.14004232592181673,-0.0529327392578125,-0.1687774658203125,-0.9253387451171875,45.285858154296875,21.279190063476562,-67.46575927734375,,,,,,,,,,
0,2018-10-30 16:43:48.4180,00:39,60,0,2018-10-30 16:43:49.9560,1540932229.955883,0.024202009038313092,0.30724037284695344,-0.07351629557552836,-0.0490570068359375,-0.1590576171875,-0.90789794921875,45.302520751953125,21.508209228515625,-67.76858520507812,,,,,,,,,,
0,2018-10-30 16:43:48.4180,00:39,60,0,2018-10-30 16:43:49.9730,1540932229.9726791,-0.00818229613315945,0.34423168038815405,-0.049903910402558815,-0.0391082763671875,-0.140106201171875,-0.9186248779296875,45.25993347167969,21.74969482421875,-67.76191711425781,,,,,,,,,,
0,2018-10-30 16:43:48.4180,00:39,60,0,2018-10-30 16:43:49.9880,1540932229.988099,0.043035617951244456,0.29298154205456023,-0.06925497151529257,-0.0373382568359375,-0.122802734375,-0.9670562744140625,45.25993347167969,21.74969482421875,-67.76191711425781,,,,,,,,,,
0,2018-10-30 16:43:48.4180,00:39,60,0,2018-10-30 16:43:50.0050,1540932230.004736,0.10201957609042843,0.16711149418970914,-0.11011718370092337,-0.03192138671875,-0.1197052001953125,-0.993316650390625,45.10589599609375,21.934890747070312,-67.99757385253906,,,,,,,,,,
0,2018-10-30 16:43:48.4180,00:39,60,0,2018-10-30 16:43:50.0220,1540932230.021533,0.11137499468376778,0.0415849941054783,-0.11777030972548407,-0.018707275390625,-0.133575439453125,-0.96221923828125,44.87275695800781,21.903244018554688,-68.01142883300781,,,,,,,,,,
0,2018-10-30 16:43:48.4180,00:39,60,0,2018-10-30 16:43:50.0380,1540932230.038248,0.08486615550922806,0.02668833623201107,-0.1156405798017477,-0.024017333984375,-0.1490631103515625,-0.908294677734375,44.56538391113281,22.27374267578125,-68.4046630859375,,,,,,,,,,
0,2018-10-30 16:43:48.4180,00:39,60,0,2018-10-30 16:43:50.0550,1540932230.05475,-0.0031419974540754852,0.0965632916490741,-0.06734441974926973,-0.02410888671875,-0.1741790771484375,-0.848602294921875,44.59687805175781,22.42230224609375,-68.63156127929688,,,,,,,,,,
0,2018-10-30 16:43:48.4180,00:39,60,0,2018-10-30 16:43:50.0720,1540932230.071759,-0.0694136959162613,0.24074070779545687,0.011022291119619951,-0.0103912353515625,-0.226165771484375,-0.823944091796875,44.56538391113281,22.27374267578125,-68.4046630859375,,,,,,,,,,
0,2018-10-30 16:43:48.4180,00:39,60,0,2018-10-30 16:43:50.0880,1540932230.088344,-0.16894587954855572,0.4456232830935418,0.13551894681031715,-0.0103912353515625,-0.226165771484375,-0.823944091796875,44.56538391113281,22.27374267578125,-68.4046630859375,,,,,,,,,,
0,2018-10-30 16:43:48.4180,00:39,60,0,2018-10-30 16:43:50.1070,1540932230.106725,-0.2676932296076038,0.5035579557632346,0.22021226316479908,0.002593994140625,-0.2318267822265625,-0.8645782470703125,44.95368957519531,22.429534912109375,-68.61189270019531,,,,,,,,,,
0,2018-10-30 16:43:48.4180,00:39,60,0,2018-10-30 16:43:50.1220,1540932230.122251,-0.41107702374914296,0.18782130009060133,0.27018781260068103,0.0045928955078125,-0.220123291015625,-0.9873809814453125,44.78810119628906,22.695510864257812,-68.53294372558594,,,,,,,,,,
0,2018-10-30 16:43:48.4180,00:39,60,0,2018-10-30 16:43:50.1380,1540932230.138187,-0.5164340733176587,-0.14303731688371984,0.22375799584013056,0.0045928955078125,-0.220123291015625,-0.9873809814453125,44.49946594238281,22.9859619140625,-68.3817138671875,,,,,,,,,,
0,2018-10-30 16:43:48.4180,00:39,60,0,2018-10-30 16:43:50.1550,1540932230.154852,-0.5445088512131651,-0.3435616290578901,0.12713984307260084,-0.0271759033203125,-0.2003021240234375,-0.9981231689453125,44.226837158203125,23.505355834960938,-68.61137390136719,,,,,,,,,,
0,2018-10-30 16:43:48.4180,00:39,60,0,2018-10-30 16:43:50.1720,1540932230.1716251,-0.48045263646181613,-0.38928703971011464,0.04782424790731594,-0.0437469482421875,-0.2058563232421875,-1.0021209716796875,43.87506103515625,23.807876586914062,-68.61924743652344,,,,,,,,,,
0,2018-10-30 16:43:48.4180,00:39,60,0,2018-10-30 16:43:50.1920,1540932230.191937,-0.3160511749973716,-0.29344306787147095,0.028627383821697765,-0.04046630859375,-0.2165374755859375,-1.0160980224609375,43.580078125,23.788421630859375,-68.63601684570312,,,,,,,,,,
0,2018-10-30 16:43:48.4180,00:39,60,0,2018-10-30 16:43:50.2090,1540932230.2087579,-0.07289151798379577,-0.10986871077121897,0.06092114151610761,-0.0373077392578125,-0.22821044921875,-1.07568359375,43.580078125,23.788421630859375,-68.63601684570312,,,,,,,,,,
0,2018-10-30 16:43:48.4180,00:39,60,0,2018-10-30 16:43:50.2230,1540932230.2230659,0.42357337453212174,0.21501270745252837,0.12224149087961811,-0.0491790771484375,-0.2289886474609375,-1.0896453857421875,43.55888366699219,23.558990478515625,-68.87989807128906,,,,,,,,,,
0,2018-10-30 16:43:48.4180,00:39,60,0,2018-10-30 16:43:50.2420,1540932230.2416239,0.42357337453212174,0.21501270745252837,0.12224149087961811,-0.0491790771484375,-0.2289886474609375,-1.0896453857421875,43.4190673828125,23.663711547851562,-69.11778259277344,,,,,,,,,,
0,2018-10-30 16:43:48.4180,00:39,60,0,2018-10-30 16:43:50.2570,1540932230.257364,0.3917560563567271,0.19584913288053618,0.12222551191307762,-0.028564453125,-0.240997314453125,-1.041473388671875,43.33341979980469,23.446197509765625,-69.67695617675781,,,,,,,,,,
0,2018-10-30 16:43:48.4180,00:39,60,0,2018-10-30 16:43:50.2730,1540932230.2731872,0.11323681060184218,0.09534116702483673,0.22925476033005412,-0.0042724609375,-0.2484588623046875,-1.087188720703125,43.20976257324219,23.470626831054688,-69.68276977539062,,,,,,,,,,
0,2018-10-30 16:43:48.4180,00:39,60,0,2018-10-30 16:43:50.2900,1540932230.2899752,0.11323681060184218,0.09534116702483673,0.22925476033005412,-0.0042724609375,-0.2484588623046875,-1.087188720703125,43.32902526855469,23.136520385742188,-69.61067199707031,,,,,,,,,,
0,2018-10-30 16:43:48.4180,00:39,60,0,2018-10-30 16:43:50.3070,1540932230.306635,0.12842961198852623,0.044119790831015714,0.2891561774647704,-0.026031494140625,-0.1842041015625,-1.175872802734375,43.32902526855469,23.136520385742188,-69.61067199707031,,,,,,,,,,
0,2018-10-30 16:43:48.4180,00:39,60,0,2018-10-30 16:43:50.3230,1540932230.323417,0.11576388416021838,0.022956182280374025,0.2023933186271879,-0.0598297119140625,-0.1713714599609375,-1.1904754638671875,43.09326171875,23.104598999023438,-69.93690490722656,,,,,,,,,,
0,2018-10-30 16:43:48.4180,00:39,60,0,2018-10-30 16:43:50.3400,1540932230.339834,0.11576388416021838,0.022956182280374025,0.2023933186271879,-0.0524444580078125,-0.1611785888671875,-1.1723480224609375,42.933563232421875,22.97998046875,-70.26246643066406,,,,,,,,,,
0,2018-10-30 16:43:48.4180,00:39,60,0,2018-10-30 16:43:50.3570,1540932230.3565478,-0.03634043097078525,0.08214413855905807,0.10184194324572014,-0.02655029296875,-0.138946533203125,-1.1902008056640625,42.82408142089844,22.923919677734375,-70.2705078125,,,,,,,,,,
0,2018-10-30 16:43:48.4180,00:39,60,0,2018-10-30 16:43:50.3730,1540932230.372991,-0.03634043097078525,0.08214413855905807,0.10184194324572014,-0.02655029296875,-0.138946533203125,-1.1902008056640625,42.79063415527344,22.775131225585938,-70.27786254882812,,,,,,,,,,
0,2018-10-30 16:43:48.4180,00:39,60,0,2018-10-30 16:43:50.3900,1540932230.389872,0.010650513831444889,0.02772830063768701,0.07285023898689955,0.031341552734375,-0.05816650390625,-1.255462646484375,42.57167053222656,22.663009643554688,-70.29396057128906,,,,,,,,,,
0,2018-10-30 16:43:48.4180,00:39,60,0,2018-10-30 16:43:50.4070,1540932230.40652,0.30305601414222094,-0.18232320402013275,-0.03349457702992658,0.0269012451171875,-0.0135040283203125,-1.215087890625,42.57167053222656,22.663009643554688,-70.29396057128906,,,,,,,,,,
0,2018-10-30 16:43:48.4180,00:39,60,0,2018-10-30 16:43:50.4230,1540932230.423094,0.30305601414222094,-0.18232320402013275,-0.03349457702992658,0.0269012451171875,-0.0135040283203125,-1.215087890625,42.2845458984375,22.253204345703125,-70.48095703125,,,,,,,,,,
0,2018-10-30 16:43:48.4180,00:39,60,0,2018-10-30 16:43:50.4400,1540932230.4399219,0.4493240117443159,-0.28416461463363485,-0.34206360094472055,-0.0133819580078125,0.001861572265625,-1.11602783203125,41.94520568847656,21.774642944335938,-71.21975708007812,,,,,,,,,,
0,2018-10-30 16:43:48.4180,00:39,60,0,2018-10-30 16:43:50.4560,1540932230.455982,0.5972935029668626,-0.26048937885893947,-0.3966839696378097,0.002532958984375,-0.0387420654296875,-1.0938568115234375,41.388031005859375,21.884490966796875,-71.32405090332031,,,,,,,,,,
0,2018-10-30 16:43:48.4180,00:39,60,0,2018-10-30 16:43:50.4720,1540932230.471627,0.5972935029668626,-0.26048937885893947,-0.3966839696378097,0.0270538330078125,-0.099517822265625,-1.0452423095703125,40.88258361816406,21.362594604492188,-71.44903564453125,,,,,,,,,,
0,2018-10-30 16:43:48.4180,00:39,60,0,2018-10-30 16:43:50.4880,1540932230.488388,0.7994910792539296,-0.026277410475811842,-0.2165389650732528,0.040618896484375,-0.16278076171875,-0.9708099365234375,40.73265075683594,20.847793579101562,-71.71052551269531,,,,,,,,,,
0,2018-10-30 16:43:48.4180,00:39,60,0,2018-10-30 16:43:50.5050,1540932230.505055,0.7078623587886633,0.12761654890772503,-0.07283159685926899,0.0404205322265625,-0.2144317626953125,-0.8863525390625,40.73265075683594,20.847793579101562,-71.71052551269531,,,,,,,,,,
0,2018-10-30 16:43:48.4180,00:39,60,0,2018-10-30 16:43:50.5220,1540932230.521717,0.7078623587886633,0.12761654890772503,-0.07283159685926899,0.049072265625,-0.2493743896484375,-0.8151702880859375,40.692230224609375,20.389083862304688,-71.9639892578125,,,,,,,,,,
0,2018-10-30 16:43:48.4180,00:39,60,0,2018-10-30 16:43:50.5380,1540932230.538367,0.008321313142061589,0.04330220037636139,0.24099530599566843,0.0619049072265625,-0.2740936279296875,-0.7700958251953125,40.687164306640625,20.079315185546875,-71.97578430175781,,,,,,,,,,
0,2018-10-30 16:43:48.4180,00:39,60,0,2018-10-30 16:43:50.5550,1540932230.555033,-0.4479306458619865,-0.2253596209197042,0.3596393988748075,0.0565032958984375,-0.280181884765625,-0.75054931640625,40.52679443359375,19.954666137695312,-72.37945556640625,,,,,,,,,,
0,2018-10-30 16:43:48.4180,00:39,60,0,2018-10-30 16:43:50.5720,1540932230.5718598,-0.8337387982401306,-0.5311938447110959,0.4086146650052557,0.0205841064453125,-0.264129638671875,-0.7475433349609375,40.28514099121094,20.313308715820312,-72.30117797851562,,,,,,,,,,
0,2018-10-30 16:43:48.4180,00:39,60,0,2018-10-30 16:43:50.5880,1540932230.588403,-1.120235276724239,-0.7219877652104436,0.39238536132231283,-0.0292816162109375,-0.2411651611328125,-0.728668212890625,39.98297119140625,20.684326171875,-72.06962585449219,,,,,,,,,,
0,2018-10-30 16:43:48.4180,00:39,60,0,2018-10-30 16:43:50.6050,1540932230.6052408,-1.2505259056825124,-0.6912338472583176,0.31749434199208554,-0.0875091552734375,-0.230560302734375,-0.7232208251953125,39.98297119140625,20.684326171875,-72.06962585449219,,,,,,,,,,
0,2018-10-30 16:43:48.4180,00:39,60,0,2018-10-30 16:43:50.6220,1540932230.621714,-1.2308507378651161,-0.5235204786622505,0.2545156422177827,-0.1231842041015625,-0.22674560546875,-0.7451324462890625,39.27290344238281,21.679885864257812,-71.75895690917969,,,,,,,,,,
0,2018-10-30 16:43:48.4180,00:39,60,0,2018-10-30 16:43:50.6380,1540932230.638443,-1.0608169570112629,-0.27743826866842175,0.24835308745533935,-0.13446044921875,-0.2276763916015625,-0.7889556884765625,39.0802001953125,22.106964111328125,-71.51936340332031,,,,,,,,,,
0,2018-10-30 16:43:48.4180,00:39,60,0,2018-10-30 16:43:50.6560,1540932230.656299,-0.734707288892771,-0.030669495745570523,0.2367994956982486,-0.14349365234375,-0.198211669921875,-0.8489227294921875,38.96925354003906,22.751144409179688,-71.18917846679688,,,,,,,,,,
0,2018-10-30 16:43:48.4180,00:39,60,0,2018-10-30 16:43:50.6720,1540932230.67169,-0.33577108392108135,0.19959167316042453,0.12133441821233712,-0.1569671630859375,-0.145599365234375,-0.9102630615234375,38.83201599121094,22.85614013671875,-71.11466979980469,,,,,,,,,,
0,2018-10-30 16:43:48.4180,00:39,60,0,2018-10-30 16:43:50.6880,1540932230.68838,-0.11182826470129928,0.3986280772335676,-0.1504728626472211,-0.1829681396484375,-0.119110107421875,-0.9126739501953125,39.1121826171875,22.95599365234375,-71.17378234863281,,,,,,,,,,
0,2018-10-30 16:43:48.4180,00:39,60,0,2018-10-30 16:43:50.7050,1540932230.705233,-0.16102483951833305,0.5916675751640701,-0.43078867687347344,-0.190887451171875,-0.1335296630859375,-0.858795166015625,39.1121826171875,22.95599365234375,-71.17378234863281,,,,,,,,,,
0,2018-10-30 16:43:48.4180,00:39,60,0,2018-10-30 16:43:50.7220,1540932230.721789,-0.3429720051925466,0.6122982851805869,-0.5549393879385693,-0.11529541015625,-0.1505584716796875,-0.861572265625,39.112823486328125,22.9560546875,-71.09568786621094,,,,,,,,,,
0,2018-10-30 16:43:48.4180,00:39,60,0,2018-10-30 16:43:50.7390,1540932230.738514,-0.4941772371395395,0.5683262997900707,-0.5560280881921937,-0.06268310546875,-0.1999053955078125,-0.928955078125,39.11412048339844,22.9561767578125,-70.93948364257812,,,,,,,,,,
0,2018-10-30 16:43:48.4180,00:39,60,0,2018-10-30 16:43:50.7550,1540932230.755204,-0.5355198835858206,0.467576518907392,-0.4169303855090281,0.00177001953125,-0.2318878173828125,-1.0137481689453125,39.03025817871094,23.43927001953125,-70.76994323730469,,,,,,,,,,
0,2018-10-30 16:43:48.4180,00:39,60,0,2018-10-30 16:43:50.7720,1540932230.7719111,-0.373369059558602,0.38082777482358693,-0.21040011244451112,0.0396575927734375,-0.237213134765625,-1.1120758056640625,39.15702819824219,23.724411010742188,-70.98661804199219,,,,,,,,,,
0,2018-10-30 16:43:48.4180,00:39,60,0,2018-10-30 16:43:50.7880,1540932230.788463,0.03282772149297074,0.35108372755681894,0.03148016198139064,0.0529632568359375,-0.2105255126953125,-1.2188720703125,39.32392883300781,23.45855712890625,-70.90936279296875,,,,,,,,,,
0,2018-10-30 16:43:48.4180,00:39,60,0,2018-10-30 16:43:50.8050,1540932230.805203,0.4046787792302276,0.4636129362570271,0.21036336082146803,0.0407867431640625,-0.180816650390625,-1.2413330078125,39.53277587890625,22.951202392578125,-70.91688537597656,,,,,,,,,,
0,2018-10-30 16:43:48.4180,00:39,60,0,2018-10-30 16:43:50.8220,1540932230.821871,0.5876520608724487,0.660363016534337,0.3379945571151885,0.0174560546875,-0.1475830078125,-1.1933135986328125,39.53277587890625,22.951202392578125,-70.91688537597656,,,,,,,,,,
0,2018-10-30 16:43:48.4180,00:39,60,0,2018-10-30 16:43:50.8390,1540932230.838653,0.6610612973721558,0.8381239592910551,0.3381961584097075,-0.01702880859375,-0.1160736083984375,-1.1629180908203125,40.15766906738281,22.438568115234375,-71.2142333984375,,,,,,,,,,
0,2018-10-30 16:43:48.4180,00:39,60,0,2018-10-30 16:43:50.8550,1540932230.855204,0.6474349673386565,0.9274522412067109,0.21194794167006517,-0.0431671142578125,-0.0915985107421875,-1.14697265625,40.764617919921875,21.69683837890625,-71.36494445800781,,,,,,,,,,
0,2018-10-30 16:43:48.4180,00:39,60,0,2018-10-30 16:43:50.8730,1540932230.872972,0.5332644524586324,0.846155254190407,-0.010864099350869244,-0.055419921875,-0.090301513671875,-1.152008056640625,41.17497253417969,21.38177490234375,-71.74465942382812,,,,,,,,,,
0,2018-10-30 16:43:48.4180,00:39,60,0,2018-10-30 16:43:50.8890,1540932230.888562,0.20461306339576893,0.5135932793828711,-0.1771787757424267,-0.030517578125,-0.1313018798828125,-1.16754150390625,41.34185791015625,21.115921020507812,-71.66740417480469,,,,,,,,,,
0,2018-10-30 16:43:48.4180,00:39,60,0,2018-10-30 16:43:50.9050,1540932230.9052382,-0.2961448447973563,-0.01394058304212878,-0.13059103352923454,0.0452117919921875,-0.181793212890625,-1.198150634765625,41.005615234375,21.338119506835938,-71.52130126953125,,,,,,,,,,
0,2018-10-30 16:43:48.4180,00:39,60,0,2018-10-30 16:43:50.9220,1540932230.921895,-0.6912085472279619,-0.4867464850660004,0.0413295969569397,0.0918121337890625,-0.1790313720703125,-1.2418670654296875,41.005615234375,21.338119506835938,-71.52130126953125,,,,,,,,,,
0,2018-10-30 16:43:48.4180,00:39,60,0,2018-10-30 16:43:50.9390,1540932230.93862,-0.7007117712618006,-0.6839237363821591,0.14496224971962912,0.0716705322265625,-0.09423828125,-1.2757110595703125,40.62739562988281,21.80181884765625,-71.29043579101562,,,,,,,,,,
0,2018-10-30 16:43:48.4180,00:39,60,0,2018-10-30 16:43:50.9550,1540932230.9552479,-0.36115713438004365,-0.5863361929778406,0.08074917478007457,0.000823974609375,0.0076141357421875,-1.2841796875,40.09666442871094,21.750457763671875,-71.63345336914062,,,,,,,,,,
0,2018-10-30 16:43:48.4180,00:39,60,0,2018-10-30 16:43:50.9720,1540932230.971951,0.20906720031892648,-0.3377189199423653,-0.16752135468147233,-0.0673675537109375,0.0724334716796875,-1.250152587890625,39.835784912109375,21.8798828125,-71.56477355957031,,,,,,,,,,
0,2018-10-30 16:43:48.4180,00:39,60,0,2018-10-30 16:43:50.9890,1540932230.988593,0.6498272849458746,-0.17864564487084234,-0.4330049595326374,-0.022369384765625,0.0265960693359375,-1.070831298828125,39.58796691894531,21.228271484375,-72.14891052246094,,,,,,,,,,
0,2018-10-30 16:43:48.4180,00:39,60,0,2018-10-30 16:43:51.0050,1540932231.005369,0.7891753247715076,-0.08636498257072465,-0.5828453214209647,-0.022369384765625,0.0265960693359375,-1.070831298828125,39.34602355957031,20.577224731445312,-72.03021240234375,,,,,,,,,,
0,2018-10-30 16:43:48.4180,00:39,60,0,2018-10-30 16:43:51.0220,1540932231.021975,0.7298467535872675,-0.11181841100526599,-0.5667995095371282,0.026580810546875,-0.05389404296875,-0.9911956787109375,39.34602355957031,20.577224731445312,-72.03021240234375,,,,,,,,,,
0,2018-10-30 16:43:48.4180,00:39,60,0,2018-10-30 16:43:51.0390,1540932231.038553,0.5974703368632438,-0.1477338014660746,-0.4640092146272309,0.0424041748046875,-0.1674346923828125,-0.882598876953125,39.041412353515625,20.247589111328125,-72.60546875,,,,,,,,,,
0,2018-10-30 16:43:48.4180,00:39,60,0,2018-10-30 16:43:51.0550,1540932231.055279,0.43401855864352157,-0.23314350815378782,-0.35163473558635633,0.0424041748046875,-0.1674346923828125,-0.882598876953125,38.903900146484375,19.342880249023438,-72.49050903320312,,,,,,,,,,
0,2018-10-30 16:43:48.4180,00:39,60,0,2018-10-30 16:43:51.0720,1540932231.071974,0.2673062723012153,-0.336767905117098,-0.2746203779190089,0.03509521484375,-0.1793975830078125,-0.8507232666015625,38.63911437988281,19.471878051757812,-72.89041137695312,,,,,,,,,,
0,2018-10-30 16:43:48.4180,00:39,60,0,2018-10-30 16:43:51.0900,1540932231.089865,0.003290868159010915,-0.3445680376338311,-0.12464579271174164,0.050994873046875,-0.157684326171875,-0.7936553955078125,38.24247741699219,19.0059814453125,-73.08544921875,,,,,,,,,,
0,2018-10-30 16:43:48.4180,00:39,60,0,2018-10-30 16:43:51.1050,1540932231.105319,0.003290868159010915,-0.3445680376338311,-0.12464579271174164,0.050994873046875,-0.157684326171875,-0.7936553955078125,37.987945556640625,19.445281982421875,-72.84877014160156,,,,,,,,,,
0,2018-10-30 16:43:48.4180,00:39,60,0,2018-10-30 16:43:51.1240,1540932231.1238132,-0.0442470899311215,-0.22014222202813,-0.020607274198924136,0.0131683349609375,-0.1670074462890625,-0.789520263671875,37.78254699707031,19.252593994140625,-72.94515991210938,,,,,,,,,,
0,2018-10-30 16:43:48.4180,00:39,60,0,2018-10-30 16:43:51.1390,1540932231.139388,-0.061395450506250726,0.11153238750419148,0.11580542947322361,-0.003875732421875,-0.1641693115234375,-0.813568115234375,37.78254699707031,19.252593994140625,-72.94515991210938,,,,,,,,,,
0,2018-10-30 16:43:48.4180,00:39,60,0,2018-10-30 16:43:51.1550,1540932231.155334,-0.061395450506250726,0.11153238750419148,0.11580542947322361,-0.003875732421875,-0.1641693115234375,-0.813568115234375,38.13624572753906,18.950225830078125,-72.7030029296875,,,,,,,,,,
0,2018-10-30 16:43:48.4180,00:39,60,0,2018-10-30 16:43:51.1720,1540932231.172046,-0.058109376037201954,0.1159729423057896,0.07940081632016745,-0.0351409912109375,-0.1788177490234375,-0.8812255859375,38.13624572753906,18.950225830078125,-72.7030029296875,,,,,,,,,,
0,2018-10-30 16:43:48.4180,00:39,60,0,2018-10-30 16:43:51.1890,1540932231.188795,-0.062167500906264696,-0.11496413688486758,-0.04296131575683124,-0.0356597900390625,-0.1859588623046875,-0.8981475830078125,37.96234130859375,18.906112670898438,-73.02635192871094,,,,,,,,,,
0,2018-10-30 16:43:48.4180,00:39,60,0,2018-10-30 16:43:51.2050,1540932231.20539,-0.062167500906264696,-0.11496413688486758,-0.04296131575683124,-0.0356597900390625,-0.1859588623046875,-0.8981475830078125,37.96429443359375,18.90631103515625,-72.79206848144531,,,,,,,,,,
0,2018-10-30 16:43:48.4180,00:39,60,0,2018-10-30 16:43:51.2220,1540932231.222053,-0.05430078936227963,-0.19259421739624133,-0.12337360065901079,-0.010955810546875,-0.1953277587890625,-0.9090728759765625,37.946990966796875,18.67724609375,-72.56735229492188,,,,,,,,,,
0,2018-10-30 16:43:48.4180,00:39,60,0,2018-10-30 16:43:51.2390,1540932231.238792,0.03812608048168338,-0.22388209914692828,-0.09452117972520133,0.0065460205078125,-0.2055816650390625,-0.95220947265625,37.946990966796875,18.67724609375,-72.56735229492188,,,,,,,,,,
0,2018-10-30 16:43:48.4180,00:39,60,0,2018-10-30 16:43:51.2560,1540932231.255683,0.03812608048168338,-0.22388209914692828,-0.09452117972520133,0.00799560546875,-0.20477294921875,-0.9932861328125,37.70684814453125,18.335647583007812,-72.82731628417969,,,,,,,,,,
0,2018-10-30 16:43:48.4180,00:39,60,0,2018-10-30 16:43:51.2720,1540932231.272284,0.41652505239111803,-0.23196479305531875,-0.06356725837521035,-0.0181121826171875,-0.19769287109375,-0.997161865234375,37.563934326171875,18.13079833984375,-72.84271240234375,,,,,,,,,,
0,2018-10-30 16:43:48.4180,00:39,60,0,2018-10-30 16:43:51.2890,1540932231.288857,0.5708062353971525,-0.22113238532142146,-0.16746462935025364,-0.0543975830078125,-0.1931610107421875,-0.979400634765625,37.276123046875,17.720916748046875,-73.10780334472656,,,,,,,,,,
0,2018-10-30 16:43:48.4180,00:39,60,0,2018-10-30 16:43:51.3070,1540932231.306509,0.5708062353971525,-0.22113238532142146,-0.16746462935025364,-0.07208251953125,-0.202392578125,-0.9417572021484375,37.23631286621094,17.262252807617188,-73.28317260742188,,,,,,,,,,
0,2018-10-30 16:43:48.4180,00:39,60,0,2018-10-30 16:43:51.3230,1540932231.323223,0.5815986957146986,-0.004412857926261298,-0.29249072146565863,-0.0654144287109375,-0.227630615234375,-0.9267120361328125,37.10694885253906,16.97686767578125,-73.37889099121094,,,,,,,,,,
0,2018-10-30 16:43:48.4180,00:39,60,0,2018-10-30 16:43:51.3390,1540932231.3388991,0.6264335452984006,0.1713049076421479,-0.25373373812173544,-0.0457305908203125,-0.2551116943359375,-0.9725799560546875,37.10694885253906,16.97686767578125,-73.37889099121094,,,,,,,,,,
0,2018-10-30 16:43:48.4180,00:39,60,0,2018-10-30 16:43:51.3560,1540932231.355596,0.6706779720684319,0.3002620918426188,-0.1507825882819973,-0.014923095703125,-0.2739715576171875,-1.018890380859375,37.34288024902344,16.308380126953125,-73.54707336425781,,,,,,,,,,
0,2018-10-30 16:43:48.4180,00:39,60,0,2018-10-30 16:43:51.3730,1540932231.3725219,0.6078175166465286,0.37493100353793346,-0.00932159644749535,0.020355224609375,-0.27655029296875,-1.0288848876953125,37.40751647949219,15.596023559570312,-73.7261962890625,,,,,,,,,,
0,2018-10-30 16:43:48.4180,00:39,60,0,2018-10-30 16:43:51.3890,1540932231.388963,0.42942700260811595,0.389031376245467,0.1385176661977464,0.047393798828125,-0.2636566162109375,-1.0254364013671875,37.43653869628906,15.43511962890625,-73.65252685546875,,,,,,,,,,
0,2018-10-30 16:43:48.4180,00:39,60,0,2018-10-30 16:43:51.4060,1540932231.4055,0.1624986328655829,0.3923366254743644,0.2231840846252185,0.0473175048828125,-0.233245849609375,-1.0278167724609375,37.877899169921875,14.959320068359375,-73.72431945800781,,,,,,,,,,
0,2018-10-30 16:43:48.4180,00:39,60,0,2018-10-30 16:43:51.4220,1540932231.422183,-0.1498824398335505,0.35653841410151926,0.18787669384127498,0.0101776123046875,-0.207244873046875,-1.0677032470703125,38.15931701660156,15.059310913085938,-73.62721252441406,,,,,,,,,,
0,2018-10-30 16:43:48.4180,00:39,60,0,2018-10-30 16:43:51.4390,1540932231.438931,-0.1498824398335505,0.35653841410151926,0.18787669384127498,0.015716552734375,-0.159698486328125,-1.1199493408203125,38.45625305175781,15.078948974609375,-73.37615966796875,,,,,,,,,,
0,2018-10-30 16:43:48.4180,00:39,60,0,2018-10-30 16:43:51.4560,1540932231.455529,-0.494429971126988,0.2254797294848668,-0.021020064167886418,0.0500946044921875,-0.1270599365234375,-1.1934661865234375,38.45625305175781,15.078948974609375,-73.37615966796875,,,,,,,,,,
0,2018-10-30 16:43:48.4180,00:39,60,0,2018-10-30 16:43:51.4720,1540932231.4722161,-0.4253808619639585,0.19090151220738696,0.07529821666090038,0.113067626953125,-0.1263275146484375,-1.2451934814453125,38.81242370605469,15.08612060546875,-73.4345703125,,,,,,,,,,
0,2018-10-30 16:43:48.4180,00:39,60,0,2018-10-30 16:43:51.4890,1540932231.4889212,-0.3768498111033356,0.24470668729080286,0.29809214818642227,0.1464691162109375,-0.1294403076171875,-1.2235870361328125,38.709320068359375,15.339920043945312,-73.27462768554688,,,,,,,,,,
0,2018-10-30 16:43:48.4180,00:39,60,0,2018-10-30 16:43:51.5060,1540932231.505598,-0.4147591102722865,0.2823613882595422,0.43950147469577666,0.148529052734375,-0.087432861328125,-1.1749725341796875,38.90116882324219,15.613174438476562,-73.09788513183594,,,,,,,,,,
0,2018-10-30 16:43:48.4180,00:39,60,0,2018-10-30 16:43:51.5220,1540932231.522258,-0.4566319920916024,0.19105783976337462,0.3815723946643731,0.1204986572265625,-0.0226593017578125,-1.159698486328125,39.28767395019531,15.459548950195312,-72.92645263671875,,,,,,,,,,
0,2018-10-30 16:43:48.4180,00:39,60,0,2018-10-30 16:43:51.5390,1540932231.538914,-0.3783249360311305,-0.047885500612387756,0.17029903169842497,0.0811309814453125,0.0137786865234375,-1.1759796142578125,39.32177734375,15.608383178710938,-72.84101867675781,,,,,,,,,,
0,2018-10-30 16:43:48.4180,00:39,60,0,2018-10-30 16:43:51.5560,1540932231.555606,-0.21689849182041349,-0.20207240771583335,-0.06766133591898915,0.0464019775390625,0.012054443359375,-1.1473236083984375,39.32177734375,15.608383178710938,-72.84101867675781,,,,,,,,,,
0,2018-10-30 16:43:48.4180,00:39,60,0,2018-10-30 16:43:51.5720,1540932231.572425,-0.04501035189953821,-0.13056040717669862,-0.2410941092721104,0.0292205810546875,-0.0257110595703125,-1.060211181640625,39.25993347167969,15.620590209960938,-72.84391784667969,,,,,,,,,,
0,2018-10-30 16:43:48.4180,00:39,60,0,2018-10-30 16:43:51.5900,1540932231.5900211,0.10799890536987435,0.08139073028667465,-0.32653843705399466,0.0294952392578125,-0.090911865234375,-0.9772491455078125,39.19874572753906,15.632858276367188,-72.76872253417969,,,,,,,,,,
0,2018-10-30 16:43:48.4180,00:39,60,0,2018-10-30 16:43:51.6060,1540932231.60566,0.19968275326970525,0.30531410843049916,-0.2834498221970576,0.0727081298828125,-0.160614013671875,-0.9178619384765625,39.16792297363281,15.484359741210938,-72.46369934082031,,,,,,,,,,
0,2018-10-30 16:43:48.4180,00:39,60,0,2018-10-30 16:43:51.6220,1540932231.622365,0.20021804864881118,0.4125702581723504,-0.05843667853517269,0.1399383544921875,-0.2351837158203125,-0.89337158203125,39.613006591796875,15.318191528320312,-72.67984008789062,,,,,,,,,,
0,2018-10-30 16:43:48.4180,00:39,60,0,2018-10-30 16:43:51.6390,1540932231.638993,0.09445726385903942,0.3505241974117933,0.29382576412011535,0.16778564453125,-0.3003692626953125,-0.8795318603515625,39.839813232421875,15.039962768554688,-72.83399963378906,,,,,,,,,,
0,2018-10-30 16:43:48.4180,00:39,60,0,2018-10-30 16:43:51.6560,1540932231.655686,-0.08173401175118587,0.19516123837096871,0.6192185092731579,0.146759033203125,-0.318359375,-0.8529052734375,39.839813232421875,15.039962768554688,-72.83399963378906,,,,,,,,,,
0,2018-10-30 16:43:48.4180,00:39,60,0,2018-10-30 16:43:51.6720,1540932231.6723518,-0.28651565324395684,-0.012236426260587076,0.772145208548778,0.0924835205078125,-0.2819976806640625,-0.820709228515625,39.99705505371094,14.855087280273438,-72.20783996582031,,,,,,,,,,
0,2018-10-30 16:43:48.4180,00:39,60,0,2018-10-30 16:43:51.6890,1540932231.688915,-0.45366336642449107,-0.1793545783530214,0.7698375794642243,0.0303955078125,-0.225738525390625,-0.7959136962890625,40.13804626464844,15.059707641601562,-72.42674255371094,,,,,,,,,,
0,2018-10-30 16:43:48.4180,00:39,60,0,2018-10-30 16:43:51.7060,1540932231.705625,-0.5343313147913182,-0.25395451417610304,0.685166899979008,-0.024749755859375,-0.1830596923828125,-0.7953338623046875,40.034912109375,15.313522338867188,-72.26675415039062,,,,,,,,,,
0,2018-10-30 16:43:48.4180,00:39,60,0,2018-10-30 16:43:51.7220,1540932231.722416,-0.48829857534929855,-0.21381987760028187,0.5459932972047752,-0.0616455078125,-0.1493988037109375,-0.8152923583984375,40.17784118652344,15.518356323242188,-72.25137329101562,,,,,,,,,,
0,2018-10-30 16:43:48.4180,00:39,60,0,2018-10-30 16:43:51.7390,1540932231.738974,-0.33746778385157084,-0.13461160782692716,0.3918505985754249,-0.081573486328125,-0.139862060546875,-0.8518524169921875,40.206878662109375,15.357452392578125,-72.177734375,,,,,,,,,,
0,2018-10-30 16:43:48.4180,00:39,60,0,2018-10-30 16:43:51.7560,1540932231.755713,-0.14157497512915734,-0.08396627337689029,0.23980354140785798,-0.080322265625,-0.1499176025390625,-0.8836669921875,40.173431396484375,15.208694458007812,-72.18507385253906,,,,,,,,,,
0,2018-10-30 16:43:48.4180,00:39,60,0,2018-10-30 16:43:51.7720,1540932231.772478,0.045702507466849805,-0.047380565269708734,0.10808758863417398,-0.052154541015625,-0.203948974609375,-0.884674072265625,40.173431396484375,15.208694458007812,-72.18507385253906,,,,,,,,,,
0,2018-10-30 16:43:48.4180,00:39,60,0,2018-10-30 16:43:51.7890,1540932231.788982,0.15962721257825946,0.04918352532769238,0.030006368634140794,-0.052154541015625,-0.203948974609375,-0.884674072265625,40.17668151855469,15.209014892578125,-71.79460144042969,,,,,,,,,,
0,2018-10-30 16:43:48.4180,00:39,60,0,2018-10-30 16:43:51.8060,1540932231.805694,0.20972739795315712,0.20676756071764305,-0.007291468748527946,-0.0265960693359375,-0.233978271484375,-0.8701629638671875,40.32679748535156,15.023391723632812,-72.02754211425781,,,,,,,,,,
0,2018-10-30 16:43:48.4180,00:39,60,0,2018-10-30 16:43:51.8220,1540932231.822361,0.2500979906015593,0.3501955633332775,0.002513491436816785,0.050811767578125,-0.2779541015625,-0.9470062255859375,40.616058349609375,14.7330322265625,-72.10066223144531,,,,,,,,,,
0,2018-10-30 16:43:48.4180,00:39,60,0,2018-10-30 16:43:51.8390,1540932231.8390589,0.3138356912865347,0.41102988579784855,0.053974552128744926,0.050811767578125,-0.2779541015625,-0.9470062255859375,41.04322814941406,14.337738037109375,-72.17018127441406,,,,,,,,,,
0,2018-10-30 16:43:48.4180,00:39,60,0,2018-10-30 16:43:51.8560,1540932231.8558512,0.3880598550798061,0.3560313482299682,0.10529020422515474,0.0657196044921875,-0.287567138671875,-1.011993408203125,41.21990966796875,13.681716918945312,-72.02891540527344,,,,,,,,,,
0,2018-10-30 16:43:48.4180,00:39,60,0,2018-10-30 16:43:51.8740,1540932231.8737001,0.41465391540922836,0.2628904848977549,0.07197219477550042,0.04638671875,-0.2627716064453125,-1.042083740234375,41.21990966796875,13.681716918945312,-72.02891540527344,,,,,,,,,,
0,2018-10-30 16:43:48.4180,00:39,60,0,2018-10-30 16:43:51.8890,1540932231.88904,0.41465391540922836,0.2628904848977549,0.07197219477550042,0.04638671875,-0.2627716064453125,-1.042083740234375,41.52598571777344,13.311080932617188,-71.7918701171875,,,,,,,,,,
0,2018-10-30 16:43:48.4180,00:39,60,0,2018-10-30 16:43:51.9060,1540932231.905744,0.356597003645501,0.24312849802882192,0.014135260117813573,0.0465087890625,-0.248443603515625,-1.0738525390625,41.62974548339844,13.057327270507812,-71.87371826171875,,,,,,,,,,
0,2018-10-30 16:43:48.4180,00:39,60,0,2018-10-30 16:43:51.9230,1540932231.922515,0.2807547031738974,0.02866759755415796,0.001038632825130903,0.0782012939453125,-0.22784423828125,-1.0801544189453125,41.90289306640625,12.847244262695312,-72.17892456054688,,,,,,,,,,
0,2018-10-30 16:43:48.4180,00:39,60,0,2018-10-30 16:43:51.9390,1540932231.939105,0.2807547031738974,0.02866759755415796,0.001038632825130903,0.0782012939453125,-0.22784423828125,-1.0801544189453125,41.77610778808594,12.562118530273438,-71.96226501464844,,,,,,,,,,
0,2018-10-30 16:43:48.4180,00:39,60,0,2018-10-30 16:43:51.9560,1540932231.955893,0.1340784429766933,0.004343882054028246,-0.05571173210780361,0.045501708984375,-0.18475341796875,-0.94671630859375,41.913330078125,12.457122802734375,-72.03678894042969,,,,,,,,,,
0,2018-10-30 16:43:48.4180,00:39,60,0,2018-10-30 16:43:51.9720,1540932231.9724689,-0.31590550008574425,0.06622189734980133,-0.3842816284413107,0.0460205078125,-0.1979827880859375,-1.011474609375,41.913330078125,12.457122802734375,-72.03678894042969,,,,,,,,,,
0,2018-10-30 16:43:48.4180,00:39,60,0,2018-10-30 16:43:51.9890,1540932231.98909,-0.31590550008574425,0.06622189734980133,-0.3842816284413107,0.0460205078125,-0.1979827880859375,-1.011474609375,41.9017333984375,12.537887573242188,-71.72216796875,,,,,,,,,,
0,2018-10-30 16:43:48.4180,00:39,60,0,2018-10-30 16:43:52.0060,1540932232.005721,-0.9154552331281219,-0.2761325207859559,-0.1564660403643354,0.10186767578125,-0.30792236328125,-1.1409912109375,41.87968444824219,13.008743286132812,-71.54969787597656,,,,,,,,,,
0,2018-10-30 16:43:48.4180,00:39,60,0,2018-10-30 16:43:52.0230,1540932232.0227609,-1.0497837469311737,-0.2596600704954888,0.10380602454965358,0.0855255126953125,-0.31158447265625,-1.2050323486328125,41.630218505859375,13.757797241210938,-71.30120849609375,,,,,,,,,,
0,2018-10-30 16:43:48.4180,00:39,60,0,2018-10-30 16:43:52.0390,1540932232.03915,-1.0497837469311737,-0.2596600704954888,0.10380602454965358,0.034454345703125,-0.24725341796875,-1.2686920166015625,41.66807556152344,14.216262817382812,-71.36013793945312,,,,,,,,,,
0,2018-10-30 16:43:48.4180,00:39,60,0,2018-10-30 16:43:52.0560,1540932232.055912,-0.7095923482327788,-0.03762727040951154,0.29354053956736786,-0.02911376953125,-0.1575775146484375,-1.285064697265625,41.87347412109375,14.408950805664062,-71.26373291015625,,,,,,,,,,
0,2018-10-30 16:43:48.4180,00:39,60,0,2018-10-30 16:43:52.0730,1540932232.072546,-0.7095923482327788,-0.03762727040951154,0.29354053956736786,-0.02911376953125,-0.1575775146484375,-1.285064697265625,41.87347412109375,14.408950805664062,-71.26373291015625,,,,,,,,,,
0,2018-10-30 16:43:48.4180,00:39,60,0,2018-10-30 16:43:52.0890,1540932232.089186,-0.5645483394676842,0.13508538418485225,0.30228556163886106,-0.0418243408203125,0.02642822265625,-1.1817169189453125,41.77606201171875,14.972579956054688,-71.01385498046875,,,,,,,,,,
0,2018-10-30 16:43:48.4180,00:39,60,0,2018-10-30 16:43:52.1060,1540932232.1058931,-0.127514549837975,0.21983755639942493,-0.031823976078119875,-0.0733184814453125,0.085205078125,-1.1986083984375,41.963531494140625,14.936141967773438,-70.77084350585938,,,,,,,,,,
0,2018-10-30 16:43:48.4180,00:39,60,0,2018-10-30 16:43:52.1230,1540932232.122519,-0.127514549837975,0.21983755639942493,-0.031823976078119875,-0.0733184814453125,0.085205078125,-1.1986083984375,41.96726989746094,15.24578857421875,-70.91523742675781,,,,,,,,,,
0,2018-10-30 16:43:48.4180,00:39,60,0,2018-10-30 16:43:52.1410,1540932232.141402,0.4602709354050866,0.025072862714769002,-0.6126128045053253,-0.0983428955078125,0.0570831298828125,-1.081756591796875,42.008544921875,15.004165649414062,-71.07810974121094,,,,,,,,,,
0,2018-10-30 16:43:48.4180,00:39,60,0,2018-10-30 16:43:52.1570,1540932232.1565619,0.4454206165345868,-0.014277206603914796,-0.7443737647014317,-0.068572998046875,-0.0074462890625,-0.96697998046875,41.94361877441406,14.706817626953125,-70.85853576660156,,,,,,,,,,
0,2018-10-30 16:43:48.4180,00:39,60,0,2018-10-30 16:43:52.1730,1540932232.172637,0.4454206165345868,-0.014277206603914796,-0.7443737647014317,-0.0221710205078125,-0.0725555419921875,-0.9085693359375,41.92192077636719,14.168060302734375,-70.56752014160156,,,,,,,,,,
0,2018-10-30 16:43:48.4180,00:39,60,0,2018-10-30 16:43:52.1890,1540932232.189192,0.2551524040344207,-0.16403048312459648,-0.7059616607186738,0.0042572021484375,-0.123046875,-0.8780670166015625,41.92192077636719,14.168060302734375,-70.56752014160156,,,,,,,,,,
0,2018-10-30 16:43:48.4180,00:39,60,0,2018-10-30 16:43:52.2060,1540932232.206003,0.13128425436098215,-0.19777007097481034,-0.6267296888116174,0.0184326171875,-0.1544036865234375,-0.844512939453125,41.72090148925781,14.285049438476562,-70.730224609375,,,,,,,,,,
0,2018-10-30 16:43:48.4180,00:39,60,0,2018-10-30 16:43:52.2220,1540932232.2224998,0.13128425436098215,-0.19777007097481034,-0.6267296888116174,0.02667236328125,-0.1830902099609375,-0.8184661865234375,41.54896545410156,14.241134643554688,-70.81927490234375,,,,,,,,,,
0,2018-10-30 16:43:48.4180,00:39,60,0,2018-10-30 16:43:52.2390,1540932232.239233,-0.18595255995369273,-0.24210397995746843,-0.40932306585521677,0.0373382568359375,-0.2079315185546875,-0.82611083984375,41.21138000488281,14.463165283203125,-70.82937622070312,,,,,,,,,,
0,2018-10-30 16:43:48.4180,00:39,60,0,2018-10-30 16:43:52.2560,1540932232.256074,-0.30859485657736774,-0.3614138631091273,-0.3023545375110941,0.0360107421875,-0.224395751953125,-0.862060546875,41.210723876953125,14.463104248046875,-70.907470703125,,,,,,,,,,
0,2018-10-30 16:43:48.4180,00:39,60,0,2018-10-30 16:43:52.2740,1540932232.2737799,-0.405834591143322,-0.47441365237395244,-0.21144726738513028,0.0290679931640625,-0.229461669921875,-0.884185791015625,40.859619140625,14.765701293945312,-70.83724975585938,,,,,,,,,,
0,2018-10-30 16:43:48.4180,00:39,60,0,2018-10-30 16:43:52.2890,1540932232.289326,-0.43162624103630337,-0.5079915863459985,-0.13759301666727086,0.0160369873046875,-0.2208709716796875,-0.9002838134765625,40.859619140625,14.765701293945312,-70.83724975585938,,,,,,,,,,
0,2018-10-30 16:43:48.4180,00:39,60,0,2018-10-30 16:43:52.3060,1540932232.3060389,-0.356967981985349,-0.4072553875848792,-0.08287277943330375,0.0007781982421875,-0.1962890625,-0.9153594970703125,40.536895751953125,14.907302856445312,-70.77146911621094,,,,,,,,,,
0,2018-10-30 16:43:48.4180,00:39,60,0,2018-10-30 16:43:52.3230,1540932232.3225632,-0.18931799662322585,-0.2964071661647291,-0.07528037348159684,-0.0101470947265625,-0.170745849609375,-0.955352783203125,40.37062072753906,15.173202514648438,-70.77059936523438,,,,,,,,,,
0,2018-10-30 16:43:48.4180,00:39,60,0,2018-10-30 16:43:52.3390,1540932232.3393521,-0.013083045171123266,-0.18324678828617222,-0.12551371691099847,-0.015625,-0.148284912109375,-0.9815216064453125,40.30879211425781,15.185409545898438,-70.77351379394531,,,,,,,,,,
0,2018-10-30 16:43:48.4180,00:39,60,0,2018-10-30 16:43:52.3560,1540932232.356242,0.09602107205113396,-0.15043424681141493,-0.2079558631960364,-0.009002685546875,-0.128997802734375,-0.994781494140625,40.10716247558594,15.302352905273438,-71.01431274414062,,,,,,,,,,
0,2018-10-30 16:43:48.4180,00:39,60,0,2018-10-30 16:43:52.3730,1540932232.372608,0.2214937762813452,-0.17607862389611495,-0.31724560274627217,0.0050811767578125,-0.1156463623046875,-1.017730712890625,40.2677001953125,14.72662353515625,-71.10507202148438,,,,,,,,,,
0,2018-10-30 16:43:48.4180,00:39,60,0,2018-10-30 16:43:52.3890,1540932232.389121,0.4050825144514836,-0.17972981775061359,-0.3858294576668648,0.0203399658203125,-0.115753173828125,-1.03839111328125,40.2677001953125,14.72662353515625,-71.10507202148438,,,,,,,,,,
0,2018-10-30 16:43:48.4180,00:39,60,0,2018-10-30 16:43:52.4060,1540932232.405849,0.647182765983426,-0.12241512898269127,-0.42329720472708054,0.0102691650390625,-0.1420745849609375,-1.0497589111328125,40.02101135253906,14.775543212890625,-71.03861999511719,,,,,,,,,,
0,2018-10-30 16:43:48.4180,00:39,60,0,2018-10-30 16:43:52.4230,1540932232.422678,0.7878623863540987,0.03944620943403566,-0.3952890058588262,-0.0015869140625,-0.179412841796875,-1.0096282958984375,40.07208251953125,14.14373779296875,-71.13740539550781,,,,,,,,,,
0,2018-10-30 16:43:48.4180,00:39,60,0,2018-10-30 16:43:52.4400,1540932232.439539,0.8447344577488498,0.2838687374365271,-0.2557891658510586,0.0155029296875,-0.209503173828125,-0.9877777099609375,40.28025817871094,13.636306762695312,-71.22303771972656,,,,,,,,,,
0,2018-10-30 16:43:48.4180,00:39,60,0,2018-10-30 16:43:52.4710,1540932232.4708529,0.8593658647777451,0.32176658501279065,-0.03086497176958234,0.0648040771484375,-0.194854736328125,-1.07244873046875,40.55815124511719,12.726287841796875,-71.47599792480469,,,,,,,,,,
0,2018-10-30 16:43:48.4180,00:39,60,0,2018-10-30 16:43:52.4870,1540932232.487382,0.6901829638921723,0.1728711126792235,0.012897422843144742,0.06982421875,-0.1812286376953125,-1.070770263671875,40.55815124511719,12.726287841796875,-71.47599792480469,,,,,,,,,,
0,2018-10-30 16:43:48.4180,00:39,60,0,2018-10-30 16:43:52.5040,1540932232.503984,0.36832210297679285,0.03962197806598089,0.02673174575777936,0.0558929443359375,-0.1911163330078125,-1.041900634765625,40.82817077636719,12.206619262695312,-71.5587158203125,,,,,,,,,,
0,2018-10-30 16:43:48.4180,00:39,60,0,2018-10-30 16:43:52.5210,1540932232.5207338,-0.06085243195998357,0.04576748859744774,0.06111022595350324,0.0268096923828125,-0.2266082763671875,-1.0103912353515625,40.8565673828125,12.045639038085938,-71.56315612792969,,,,,,,,,,
0,2018-10-30 16:43:48.4180,00:39,60,0,2018-10-30 16:43:52.5370,1540932232.537379,-0.5475618990868318,0.23481597331835757,0.206026935618492,0.03497314453125,-0.2400054931640625,-0.996307373046875,40.99754333496094,12.250289916992188,-71.78205871582031,,,,,,,,,,
0,2018-10-30 16:43:48.4180,00:39,60,0,2018-10-30 16:43:52.5540,1540932232.5540009,-0.8353939528576149,0.4042428197597816,0.4526034283106395,0.07659912109375,-0.2265167236328125,-1.0500640869140625,41.35417175292969,12.957916259765625,-71.26795959472656,,,,,,,,,,
0,2018-10-30 16:43:48.4180,00:39,60,0,2018-10-30 16:43:52.5710,1540932232.5709162,-0.8484002989893439,0.319995582887888,0.7245015229633694,0.13189697265625,-0.182220458984375,-1.195648193359375,41.71734619140625,13.2750244140625,-71.08026123046875,,,,,,,,,,
0,2018-10-30 16:43:48.4180,00:39,60,0,2018-10-30 16:43:52.5870,1540932232.58735,-0.7372769730285885,0.06633135327060359,0.8697990646642395,0.15093994140625,-0.0981903076171875,-1.2755279541015625,41.71734619140625,13.2750244140625,-71.08026123046875,,,,,,,,,,
0,2018-10-30 16:43:48.4180,00:39,60,0,2018-10-30 16:43:52.6040,1540932232.604323,-0.6477548129855749,-0.1850971526115593,0.7784441171590334,0.10498046875,-0.0021514892578125,-1.2378082275390625,41.8834228515625,13.70953369140625,-70.58670043945312,,,,,,,,,,
0,2018-10-30 16:43:48.4180,00:39,60,0,2018-10-30 16:43:52.6210,1540932232.6214728,-0.6841141524000998,-0.4277952838082244,0.4290525621588508,-0.0308685302734375,0.1378173828125,-1.0764312744140625,41.96125793457031,13.926254272460938,-70.96469116210938,,,,,,,,,,
0,2018-10-30 16:43:48.4180,00:39,60,0,2018-10-30 16:43:52.6380,1540932232.6383371,-0.7462608806498618,-0.6362704634168262,-0.03166019167108,-0.04803466796875,0.1290130615234375,-1.025146484375,41.7821044921875,14.272781372070312,-70.80543518066406,,,,,,,,,,
0,2018-10-30 16:43:48.4180,00:39,60,0,2018-10-30 16:43:52.6550,1540932232.6548882,-0.7174084597160524,-0.681570034610747,-0.4033120449587989,-0.0254669189453125,0.0760955810546875,-0.975494384765625,41.57521057128906,14.78033447265625,-70.5635986328125,,,,,,,,,,
0,2018-10-30 16:43:48.4180,00:39,60,0,2018-10-30 16:43:52.6730,1540932232.673264,-0.6207101457997113,-0.5293786341120978,-0.5562808221796423,0.0322113037109375,0.0079498291015625,-0.9411773681640625,40.98115539550781,15.441482543945312,-70.5712890625,,,,,,,,,,
0,2018-10-30 16:43:48.4180,00:39,60,0,2018-10-30 16:43:52.6890,1540932232.688901,-0.4830207227009795,-0.2313514670562735,-0.4916946383713676,0.0875244140625,-0.0592193603515625,-0.9197998046875,40.968902587890625,15.52215576171875,-70.33477783203125,,,,,,,,,,
0,2018-10-30 16:43:48.4180,00:39,60,0,2018-10-30 16:43:52.7060,1540932232.7063541,-0.3798530578646179,0.13233833352043553,-0.26531902149579817,0.1166229248046875,-0.1027984619140625,-0.8978271484375,40.968902587890625,15.52215576171875,-70.33477783203125,,,,,,,,,,
0,2018-10-30 16:43:48.4180,00:39,60,0,2018-10-30 16:43:52.7230,1540932232.7228842,-0.310149876337865,0.41735329549013267,-0.029394640531749592,0.12042236328125,-0.1169281005859375,-0.9138641357421875,41.07969665527344,15.578369140625,-70.17056274414062,,,,,,,,,,
0,2018-10-30 16:43:48.4180,00:39,60,0,2018-10-30 16:43:52.7410,1540932232.740644,-0.28102128559901435,0.4068037154640018,0.10444305268240053,0.10601806640625,-0.1122589111328125,-0.9412994384765625,41.33842468261719,16.149154663085938,-69.97911071777344,,,,,,,,,,
0,2018-10-30 16:43:48.4180,00:39,60,0,2018-10-30 16:43:52.7560,1540932232.756187,-0.2657243546137082,0.13726331732431907,0.1223115320162872,0.0869598388671875,-0.1199493408203125,-0.9399871826171875,41.508453369140625,16.192886352539062,-70.12434387207031,,,,,,,,,,
0,2018-10-30 16:43:48.4180,00:39,60,0,2018-10-30 16:43:52.7730,1540932232.7726731,-0.2553231126602947,-0.2067925944318898,0.12295548436786835,0.0620574951171875,-0.1436004638671875,-0.8921356201171875,41.39178466796875,16.527267456054688,-69.88406372070312,,,,,,,,,,
0,2018-10-30 16:43:48.4180,00:39,60,0,2018-10-30 16:43:52.7910,1540932232.791109,-0.30583102799808354,-0.4977405466780655,0.24254526575009455,0.027099609375,-0.161651611328125,-0.8370361328125,41.5025634765625,16.583465576171875,-69.71981811523438,,,,,,,,,,
0,2018-10-30 16:43:48.4180,00:39,60,0,2018-10-30 16:43:52.8070,1540932232.8072429,-0.2393910177550047,-0.36996234389217264,0.31657635036433524,-0.0128021240234375,-0.164825439453125,-0.807861328125,41.24101257324219,16.712799072265625,-69.729248046875,,,,,,,,,,
0,2018-10-30 16:43:48.4180,00:39,60,0,2018-10-30 16:43:52.8240,1540932232.823748,-0.11248233706502274,-0.10414717548529273,0.3479286806134021,-0.0458221435546875,-0.15191650390625,-0.7985076904296875,41.24101257324219,16.712799072265625,-69.729248046875,,,,,,,,,,
0,2018-10-30 16:43:48.4180,00:39,60,0,2018-10-30 16:43:52.8400,1540932232.8397322,0.05261847050167658,0.175542263252573,0.33431273690815394,-0.0743255615234375,-0.134735107421875,-0.8113250732421875,41.30479431152344,16.700775146484375,-69.49203491210938,,,,,,,,,,
0,2018-10-30 16:43:48.4180,00:39,60,0,2018-10-30 16:43:52.8560,1540932232.855966,0.21488434308798654,0.36785418557326593,0.2691883282435743,-0.086944580078125,-0.1273956298828125,-0.852294921875,41.59913635253906,16.72015380859375,-69.55337524414062,,,,,,,,,,
0,2018-10-30 16:43:48.4180,00:39,60,0,2018-10-30 16:43:52.8730,1540932232.873003,0.36667919890032297,0.4415766098171664,0.13217241858452358,-0.0973663330078125,-0.12261962890625,-0.9116058349609375,42.03004455566406,16.634475708007812,-69.76728820800781,,,,,,,,,,
0,2018-10-30 16:43:48.4180,00:39,60,0,2018-10-30 16:43:52.8930,1540932232.8933349,0.4387821548853463,0.45118023502410115,-0.00811598342201648,-0.0847930908203125,-0.12078857421875,-0.9481048583984375,42.477081298828125,16.468505859375,-69.74916076660156,,,,,,,,,,
0,2018-10-30 16:43:48.4180,00:39,60,0,2018-10-30 16:43:52.9090,1540932232.908515,0.43255674952117706,0.4514199195222083,-0.05309038264683862,-0.0507965087890625,-0.1393280029296875,-0.9649810791015625,42.829498291015625,16.166046142578125,-69.66319274902344,,,,,,,,,,
0,2018-10-30 16:43:48.4180,00:39,60,0,2018-10-30 16:43:52.9230,1540932232.922707,0.4114682421132756,0.4654390658164944,0.007971107458716167,0.0013580322265625,-0.16357421875,-0.995391845703125,42.829498291015625,16.166046142578125,-69.66319274902344,,,,,,,,,,
0,2018-10-30 16:43:48.4180,00:39,60,0,2018-10-30 16:43:52.9390,1540932232.938633,0.4158038683679246,0.5017523325441609,0.11295930921625592,0.02764892578125,-0.1833038330078125,-1.0351104736328125,43.209014892578125,15.70245361328125,-69.73785400390625,,,,,,,,,,
0,2018-10-30 16:43:48.4180,00:39,60,0,2018-10-30 16:43:52.9580,1540932232.958251,0.41189008682994416,0.5554848033298175,0.2094040901968215,0.03900146484375,-0.1864166259765625,-1.07830810546875,43.59291076660156,15.548568725585938,-69.87882995605469,,,,,,,,,,
0,2018-10-30 16:43:48.4180,00:39,60,0,2018-10-30 16:43:52.9730,1540932232.9734712,0.4051703987674562,0.6385847504041051,0.27161819642216256,0.04071044921875,-0.1625213623046875,-1.110626220703125,44.02447509765625,15.462966918945312,-70.01466369628906,,,,,,,,,,
0,2018-10-30 16:43:48.4180,00:39,60,0,2018-10-30 16:43:52.9900,1540932232.9901872,0.46047892828622183,0.6814382081367881,0.24167361312531163,0.0286865234375,-0.1159820556640625,-1.16107177734375,44.54508972167969,14.894805908203125,-69.69525146484375,,,,,,,,,,
0,2018-10-30 16:43:48.4180,00:39,60,0,2018-10-30 16:43:53.0070,1540932233.006578,0.48916197217470225,0.6719810567898078,0.10351387577807189,0.0054168701171875,-0.0720062255859375,-1.2108306884765625,45.04957580566406,14.406936645507812,-69.60792541503906,,,,,,,,,,
0,2018-10-30 16:43:48.4180,00:39,60,0,2018-10-30 16:43:53.0230,1540932233.023374,0.33858844203827615,0.543267019196861,-0.07544255999198267,-0.0027313232421875,-0.059326171875,-1.215850830078125,45.04957580566406,14.406936645507812,-69.60792541503906,,,,,,,,,,
0,2018-10-30 16:43:48.4180,00:39,60,0,2018-10-30 16:43:53.0400,1540932233.040193,0.008151137148405525,0.23574914496432134,-0.2792060750000163,-0.0046844482421875,-0.0812530517578125,-1.2278289794921875,45.48567199707031,14.32177734375,-69.19706726074219,,,,,,,,,,
0,2018-10-30 16:43:48.4180,00:39,60,0,2018-10-30 16:43:53.0570,1540932233.056848,-0.34314564329561975,-0.1463966282827458,-0.43379698364082697,0.0235748291015625,-0.09515380859375,-1.2622833251953125,45.79289245605469,14.260528564453125,-69.41682434082031,,,,,,,,,,
0,2018-10-30 16:43:48.4180,00:39,60,0,2018-10-30 16:43:53.0740,1540932233.07374,-0.5549058321088344,-0.350882925210627,-0.45113203180837075,0.0669708251953125,-0.102752685546875,-1.301666259765625,45.7083740234375,14.743545532226562,-69.32536315917969,,,,,,,,,,
0,2018-10-30 16:43:48.4180,00:39,60,0,2018-10-30 16:43:53.0900,1540932233.089723,-0.6076310953702231,-0.3036171421839007,-0.24331385404069142,0.1238250732421875,-0.1022186279296875,-1.3092193603515625,45.42414855957031,15.34368896484375,-69.24041748046875,,,,,,,,,,
0,2018-10-30 16:43:48.4180,00:39,60,0,2018-10-30 16:43:53.1070,1540932233.1066089,-0.4727345293066575,-0.15324468070977557,-0.03327193676279595,0.139373779296875,-0.0623321533203125,-1.2980499267578125,45.402130126953125,15.814559936523438,-69.06796264648438,,,,,,,,,,
0,2018-10-30 16:43:48.4180,00:39,60,0,2018-10-30 16:43:53.1230,1540932233.123086,-0.21584787477037723,-0.0811435889375153,-0.01718191640486422,0.08270263671875,0.0195465087890625,-1.2970733642578125,45.2803955078125,15.83917236328125,-68.83949279785156,,,,,,,,,,
0,2018-10-30 16:43:48.4180,00:39,60,0,2018-10-30 16:43:53.1390,1540932233.139369,0.0830663912445525,-0.07667906568610647,-0.228208138021653,0.02935791015625,0.119140625,-1.2198333740234375,45.2803955078125,15.83917236328125,-68.83949279785156,,,,,,,,,,
0,2018-10-30 16:43:48.4180,00:39,60,0,2018-10-30 16:43:53.1590,1540932233.1588058,0.0830663912445525,-0.07667906568610647,-0.228208138021653,-0.001678466796875,0.1493988037109375,-1.129302978515625,45.36802673339844,15.665725708007812,-69.15342712402344,,,,,,,,,,
0,2018-10-30 16:43:48.4180,00:39,60,0,2018-10-30 16:43:53.1730,1540932233.173047,0.3191755955882526,-0.3063101306781888,-0.7125777518147577,-0.0106201171875,0.1062469482421875,-1.0135498046875,45.33964538574219,15.82672119140625,-69.14897155761719,,,,,,,,,,
0,2018-10-30 16:43:48.4180,00:39,60,0,2018-10-30 16:43:53.1900,1540932233.190113,0.2085441554808349,-0.41755569573297874,-0.7576645364375811,0.0137786865234375,0.0220184326171875,-0.9219970703125,44.83074951171875,16.004898071289062,-69.17002868652344,,,,,,,,,,
0,2018-10-30 16:43:48.4180,00:39,60,0,2018-10-30 16:43:53.2060,1540932233.206129,0.05310396476839802,-0.44663581693998994,-0.6859152482453204,0.0393218994140625,-0.064727783203125,-0.8631134033203125,44.51832580566406,16.065628051757812,-69.57505798339844,,,,,,,,,,
0,2018-10-30 16:43:48.4180,00:39,60,0,2018-10-30 16:43:53.2240,1540932233.223967,-0.07042622976270942,-0.4351266999731035,-0.562722209908217,0.050872802734375,-0.1278228759765625,-0.8352203369140625,44.239471435546875,15.96588134765625,-69.35975646972656,,,,,,,,,,
0,2018-10-30 16:43:48.4180,00:39,60,0,2018-10-30 16:43:53.2400,1540932233.239594,-0.18208059004482652,-0.38815413098239493,-0.410575017883663,0.0925140380859375,-0.1430206298828125,-0.822235107421875,44.239471435546875,15.96588134765625,-69.35975646972656,,,,,,,,,,
0,2018-10-30 16:43:48.4180,00:39,60,0,2018-10-30 16:43:53.2570,1540932233.256526,-0.30229275217380425,-0.35194978754331274,-0.24987215454112055,0.1218719482421875,-0.139556884765625,-0.810455322265625,44.02752685546875,16.1636962890625,-69.1297607421875,,,,,,,,,,
0,2018-10-30 16:43:48.4180,00:39,60,0,2018-10-30 16:43:53.2730,1540932233.273028,-0.44320779598483995,-0.38584277347231516,-0.09139249807657625,0.12884521484375,-0.134521484375,-0.8120574951171875,43.814300537109375,16.361358642578125,-69.05593872070312,,,,,,,,,,
0,2018-10-30 16:43:48.4180,00:39,60,0,2018-10-30 16:43:53.2890,1540932233.289038,-0.44320779598483995,-0.38584277347231516,-0.09139249807657625,0.1000823974609375,-0.1309356689453125,-0.82305908203125,43.6956787109375,16.695541381835938,-69.04994201660156,,,,,,,,,,
0,2018-10-30 16:43:48.4180,00:39,60,0,2018-10-30 16:43:53.3060,1540932233.3064451,-0.6458637022955097,-0.48610439692718227,0.04239033401911826,0.055511474609375,-0.1098785400390625,-0.8243408203125,43.26002502441406,17.481155395507812,-68.88825988769531,,,,,,,,,,
0,2018-10-30 16:43:48.4180,00:39,60,0,2018-10-30 16:43:53.3230,1540932233.3230948,-0.5997207079843607,-0.41069326223606256,0.007133809611995255,0.002227783203125,-0.0858612060546875,-0.8397369384765625,43.430694580078125,17.524932861328125,-68.95541381835938,,,,,,,,,,
0,2018-10-30 16:43:48.4180,00:39,60,0,2018-10-30 16:43:53.3400,1540932233.3398519,-0.3929685936010402,-0.19293110727413637,-0.03762354198398543,-0.039154052734375,-0.0682220458984375,-0.869171142578125,43.430694580078125,17.524932861328125,-68.95541381835938,,,,,,,,,,
0,2018-10-30 16:43:48.4180,00:39,60,0,2018-10-30 16:43:53.3570,1540932233.356516,-0.08880204128425617,0.0597176590195008,-0.11448716473363439,-0.0592498779296875,-0.0501251220703125,-0.9082794189453125,43.34112548828125,17.698211669921875,-68.87576293945312,,,,,,,,,,
0,2018-10-30 16:43:48.4180,00:39,60,0,2018-10-30 16:43:53.3730,1540932233.3730159,0.16016463848623744,0.2707691806666453,-0.2053100126530427,-0.054046630859375,-0.034942626953125,-0.9288787841796875,43.382415771484375,17.456619262695312,-69.03865051269531,,,,,,,,,,
0,2018-10-30 16:43:48.4180,00:39,60,0,2018-10-30 16:43:53.3900,1540932233.3896708,0.28527488649208893,0.32503028892868274,-0.2802335225485689,-0.0180206298828125,-0.0391845703125,-0.939971923828125,43.774627685546875,17.612808227539062,-68.77731323242188,,,,,,,,,,
0,2018-10-30 16:43:48.4180,00:39,60,0,2018-10-30 16:43:53.4070,1540932233.4067302,0.30744463730256255,0.2113641767591198,-0.3092923384668595,0.01898193359375,-0.06707763671875,-0.962890625,44.022613525390625,17.56402587890625,-68.68759155273438,,,,,,,,,,
0,2018-10-30 16:43:48.4180,00:39,60,0,2018-10-30 16:43:53.4230,1540932233.423347,0.287665606202653,0.023268304760131312,-0.288102364621426,0.05267333984375,-0.0985107421875,-0.9837799072265625,44.01820373535156,17.25433349609375,-68.62130737304688,,,,,,,,,,
0,2018-10-30 16:43:48.4180,00:39,60,0,2018-10-30 16:43:53.4390,1540932233.4394422,0.2820141120533959,-0.11424748023552725,-0.23686927051880868,0.0616302490234375,-0.12799072265625,-0.996551513671875,44.01820373535156,17.25433349609375,-68.62130737304688,,,,,,,,,,
0,2018-10-30 16:43:48.4180,00:39,60,0,2018-10-30 16:43:53.4560,1540932233.456293,0.29075061200940083,-0.17945924058386153,-0.1791252801831656,0.0515289306640625,-0.1475830078125,-0.995697021484375,44.066497802734375,17.322677612304688,-68.53807067871094,,,,,,,,,,
0,2018-10-30 16:43:48.4180,00:39,60,0,2018-10-30 16:43:53.4740,1540932233.474292,0.30581265218656195,-0.12910232647988024,-0.09553957252604763,0.052764892578125,-0.1798858642578125,-0.97265625,44.02540588378906,16.863876342773438,-68.86959838867188,,,,,,,,,,
0,2018-10-30 16:43:48.4180,00:39,60,0,2018-10-30 16:43:53.4910,1540932233.49083,0.28683789573585644,0.0207337743507029,0.07705856614144276,0.052764892578125,-0.1798858642578125,-0.97265625,44.13487243652344,16.919952392578125,-68.861572265625,,,,,,,,,,
0,2018-10-30 16:43:48.4180,00:39,60,0,2018-10-30 16:43:53.5060,1540932233.506407,0.25330257234125164,0.09476991897101474,0.30632238121920313,0.106292724609375,-0.19073486328125,-0.987030029296875,44.45890808105469,16.778488159179688,-68.77114868164062,,,,,,,,,,
0,2018-10-30 16:43:48.4180,00:39,60,0,2018-10-30 16:43:53.5230,1540932233.5230808,0.18660609968519817,0.020751084897788416,0.5836003275900021,0.19598388671875,-0.1976776123046875,-1.056640625,44.643768310546875,16.741775512695312,-68.84051513671875,,,,,,,,,,
0,2018-10-30 16:43:48.4180,00:39,60,0,2018-10-30 16:43:53.5400,1540932233.5398169,0.019615779325087637,-0.06742191773699104,0.8544597894176011,0.19598388671875,-0.1976776123046875,-1.056640625,44.87120056152344,16.463592529296875,-68.91656494140625,,,,,,,,,,
0,2018-10-30 16:43:48.4180,00:39,60,0,2018-10-30 16:43:53.5560,1540932233.556396,-0.2778936692148253,-0.16457989325747982,0.9807732536039504,0.18359375,-0.162322998046875,-1.023284912109375,44.87120056152344,16.463592529296875,-68.91656494140625,,,,,,,,,,
0,2018-10-30 16:43:48.4180,00:39,60,0,2018-10-30 16:43:53.5730,1540932233.5730848,-0.6464394777231848,-0.2279865630189584,0.9518704989255384,0.0716705322265625,-0.09930419921875,-1.04193115234375,45.073516845703125,16.346725463867188,-68.59770202636719,,,,,,,,,,
0,2018-10-30 16:43:48.4180,00:39,60,0,2018-10-30 16:43:53.5900,1540932233.589814,-0.9521522613688688,-0.11890455003374882,0.9145984942054435,0.0716705322265625,-0.09930419921875,-1.04193115234375,45.39033508300781,16.595703125,-68.25894165039062,,,,,,,,,,
0,2018-10-30 16:43:48.4180,00:39,60,0,2018-10-30 16:43:53.6060,1540932233.606453,-1.0680032308967327,0.23464073731863036,0.9578969661562787,0.081756591796875,0.0103759765625,-1.1426849365234375,45.80491638183594,17.290725708007812,-68.21051025390625,,,,,,,,,,
0,2018-10-30 16:43:48.4180,00:39,60,0,2018-10-30 16:43:53.6230,1540932233.623188,-0.922311541354531,0.7343765242853832,1.1415956928794373,0.112091064453125,0.0774688720703125,-1.2236175537109375,46.64677429199219,17.28118896484375,-67.61865234375,,,,,,,,,,
0,2018-10-30 16:43:48.4180,00:39,60,0,2018-10-30 16:43:53.6400,1540932233.639865,-0.6985444907666941,1.0181440616004873,1.3196549096782442,0.112091064453125,0.0774688720703125,-1.2236175537109375,47.797821044921875,17.21063232421875,-67.01225280761719,,,,,,,,,,
0,2018-10-30 16:43:48.4180,00:39,60,0,2018-10-30 16:43:53.6560,1540932233.65646,-0.5268198689367497,0.8751134026194927,1.2423350874338648,0.0176544189453125,0.2618865966796875,-1.3525238037109375,47.797821044921875,17.21063232421875,-67.01225280761719,,,,,,,,,,
0,2018-10-30 16:43:48.4180,00:39,60,0,2018-10-30 16:43:53.6730,1540932233.673202,-0.36031557547557863,0.4499378703755792,0.8680397804481331,-0.0534515380859375,0.3137054443359375,-1.322723388671875,48.404571533203125,17.169265747070312,-66.66854858398438,,,,,,,,,,
0,2018-10-30 16:43:48.4180,00:39,60,0,2018-10-30 16:43:53.6900,1540932233.689749,-0.1918828870690812,0.06670179897823361,0.27962339234283173,-0.0534515380859375,0.3137054443359375,-1.322723388671875,48.56298828125,17.293746948242188,-66.49919128417969,,,,,,,,,,
0,2018-10-30 16:43:48.4180,00:39,60,0,2018-10-30 16:43:53.7070,1540932233.7074618,0.018461565308647294,-0.026855316432359038,-0.3609179825141546,-0.0693817138671875,0.2548828125,-1.1210174560546875,48.72206115722656,17.418289184570312,-66.251708984375,,,,,,,,,,
0,2018-10-30 16:43:48.4180,00:39,60,0,2018-10-30 16:43:53.7230,1540932233.723166,0.5595107039496904,0.4156523345018991,-0.8798703409585922,0.0435791015625,0.1293182373046875,-1.050445556640625,48.816680908203125,17.554779052734375,-66.31954956054688,,,,,,,,,,
0,2018-10-30 16:43:48.4180,00:39,60,0,2018-10-30 16:43:53.7400,1540932233.739835,0.5595107039496904,0.4156523345018991,-0.8798703409585922,0.164794921875,-0.004119873046875,-0.97491455078125,49.08018493652344,17.425643920898438,-66.07583618164062,,,,,,,,,,
0,2018-10-30 16:43:48.4180,00:39,60,0,2018-10-30 16:43:53.7570,1540932233.756504,0.706440763398779,0.7365336847683475,-0.6021567014334562,0.243011474609375,-0.1199493408203125,-0.9252777099609375,49.08018493652344,17.425643920898438,-66.07583618164062,,,,,,,,,,
0,2018-10-30 16:43:48.4180,00:39,60,0,2018-10-30 16:43:53.7730,1540932233.7731838,0.5740145455623709,0.7634910002704565,0.2770859324562043,0.2530059814453125,-0.1758575439453125,-0.9091796875,49.58335876464844,16.937652587890625,-66.14469909667969,,,,,,,,,,
0,2018-10-30 16:43:48.4180,00:39,60,0,2018-10-30 16:43:53.7910,1540932233.791362,0.5740145455623709,0.7634910002704565,0.2770859324562043,0.197998046875,-0.1588592529296875,-0.9067230224609375,50.07429504394531,16.530319213867188,-65.97705078125,,,,,,,,,,
0,2018-10-30 16:43:48.4180,00:39,60,0,2018-10-30 16:43:53.8070,1540932233.806751,0.38677061879609875,0.40983918647447415,0.44696178785741564,0.123291015625,-0.1191864013671875,-0.8797454833984375,50.661163330078125,16.2596435546875,-65.72100830078125,,,,,,,,,,
0,2018-10-30 16:43:48.4180,00:39,60,0,2018-10-30 16:43:53.8230,1540932233.823369,0.04012425024756983,-0.2514964164899599,0.31451346578395983,0.0628814697265625,-0.09368896484375,-0.8431854248046875,50.695892333984375,16.408538818359375,-65.55747985839844,,,,,,,,,,
0,2018-10-30 16:43:48.4180,00:39,60,0,2018-10-30 16:43:53.8400,1540932233.8398108,0.04012425024756983,-0.2514964164899599,0.31451346578395983,0.026275634765625,-0.0862579345703125,-0.809112548828125,50.73652648925781,16.166854858398438,-65.79843139648438,,,,,,,,,,
0,2018-10-30 16:43:48.4180,00:39,60,0,2018-10-30 16:43:53.8570,1540932233.856679,0.02970383353430779,-0.2820047909895806,0.12493581095445128,0.013427734375,-0.102447509765625,-0.802459716796875,50.9034423828125,15.901046752929688,-65.72119140625,,,,,,,,,,
0,2018-10-30 16:43:48.4180,00:39,60,0,2018-10-30 16:43:53.8730,1540932233.873279,0.07919255712292325,-0.29003821641780464,0.12170140181055003,0.0259857177734375,-0.12939453125,-0.82598876953125,50.9034423828125,15.901046752929688,-65.72119140625,,,,,,,,,,
0,2018-10-30 16:43:48.4180,00:39,60,0,2018-10-30 16:43:53.8900,1540932233.889843,0.07919255712292325,-0.29003821641780464,0.12170140181055003,0.0403289794921875,-0.1530914306640625,-0.8468780517578125,51.06187438964844,16.0255126953125,-65.55183410644531,,,,,,,,,,
0,2018-10-30 16:43:48.4180,00:39,60,0,2018-10-30 16:43:53.9070,1540932233.906519,0.020878383997894205,-0.30813146654769397,0.1880865509351732,0.043365478515625,-0.16717529296875,-0.8505859375,51.27886962890625,16.137466430664062,-65.77001953125,,,,,,,,,,
0,2018-10-30 16:43:48.4180,00:39,60,0,2018-10-30 16:43:53.9230,1540932233.923195,0.020878383997894205,-0.30813146654769397,0.1880865509351732,0.039581298828125,-0.1703338623046875,-0.8679656982421875,51.09205627441406,16.173965454101562,-65.93495178222656,,,,,,,,,,
0,2018-10-30 16:43:48.4180,00:39,60,0,2018-10-30 16:43:53.9400,1540932233.93989,-0.041260887400815655,-0.297847669998353,0.19989367562803953,0.0232391357421875,-0.1574554443359375,-0.8995361328125,51.3406982421875,16.125244140625,-65.76710510253906,,,,,,,,,,
0,2018-10-30 16:43:48.4180,00:39,60,0,2018-10-30 16:43:53.9570,1540932233.956526,-0.12170566286829416,-0.2426009258168772,0.10146191015816584,0.010589599609375,-0.14013671875,-0.9492340087890625,51.57319641113281,16.156829833984375,-65.83134460449219,,,,,,,,,,
0,2018-10-30 16:43:48.4180,00:39,60,0,2018-10-30 16:43:53.9730,1540932233.9732208,-0.12170566286829416,-0.2426009258168772,0.10146191015816584,-0.0014190673828125,-0.1275787353515625,-1.0068359375,51.57319641113281,16.156829833984375,-65.83134460449219,,,,,,,,,,
0,2018-10-30 16:43:48.4180,00:39,60,0,2018-10-30 16:43:53.9900,1540932233.989897,0.034470092937222606,0.09346070897913178,0.07720903474303223,0.006011962890625,-0.115386962890625,-1.0638885498046875,51.73095703125,16.28125,-65.74008178710938,,,,,,,,,,
0,2018-10-30 16:43:48.4180,00:39,60,0,2018-10-30 16:43:54.0080,1540932234.007773,0.2400666617235578,0.4298725494584862,0.117196398510572,0.0295867919921875,-0.0904693603515625,-1.1208953857421875,51.918426513671875,16.24481201171875,-65.4970703125,,,,,,,,,,
0,2018-10-30 16:43:48.4180,00:39,60,0,2018-10-30 16:43:54.0230,1540932234.0232902,0.2400666617235578,0.4298725494584862,0.117196398510572,0.0455474853515625,-0.0715179443359375,-1.1912841796875,52.81756591796875,16.222640991210938,-65.448974609375,,,,,,,,,,
0,2018-10-30 16:43:48.4180,00:39,60,0,2018-10-30 16:43:54.0400,1540932234.040323,0.4167215936795659,0.4887427906191238,0.11829734930521076,0.0755157470703125,-0.0538787841796875,-1.2306671142578125,53.26591491699219,16.056777954101562,-65.27464294433594,,,,,,,,,,
0,2018-10-30 16:43:48.4180,00:39,60,0,2018-10-30 16:43:54.0570,1540932234.0568252,0.21219241985813445,0.26372219010618664,0.07951799540813094,0.094696044921875,-0.0471954345703125,-1.21234130859375,53.58015441894531,16.305496215820312,-65.248291015625,,,,,,,,,,
0,2018-10-30 16:43:48.4180,00:39,60,0,2018-10-30 16:43:54.0730,1540932234.0732532,0.21219241985813445,0.26372219010618664,0.07951799540813094,0.05560302734375,-0.043182373046875,-1.1935272216796875,53.58015441894531,16.305496215820312,-65.248291015625,,,,,,,,,,
0,2018-10-30 16:43:48.4180,00:39,60,0,2018-10-30 16:43:54.0900,1540932234.0901031,-0.3633696886136815,-0.3565445393720264,-0.30661879104852896,-0.0062103271484375,-0.0333709716796875,-1.2051239013671875,53.711456298828125,16.591079711914062,-64.91828918457031,,,,,,,,,,
0,2018-10-30 16:43:48.4180,00:39,60,0,2018-10-30 16:43:54.1070,1540932234.107099,-0.47267274396936765,-0.4566825921523139,-0.4277233784587922,-0.002838134765625,-0.0170745849609375,-1.20318603515625,53.743621826171875,16.739730834960938,-65.06712341308594,,,,,,,,,,
0,2018-10-30 16:43:48.4180,00:39,60,0,2018-10-30 16:43:54.1230,1540932234.123069,-0.39022287451716847,-0.41882735515349157,-0.35487793316185484,0.031341552734375,-0.0258636474609375,-1.21795654296875,53.56690979003906,17.395751953125,-65.20841979980469,,,,,,,,,,
0,2018-10-30 16:43:48.4180,00:39,60,0,2018-10-30 16:43:54.1410,1540932234.140522,-0.2264786812097555,-0.24041287266526812,-0.1940680107434912,0.0551910400390625,-0.03375244140625,-1.2116241455078125,53.638214111328125,18.00299072265625,-65.25997924804688,,,,,,,,,,
0,2018-10-30 16:43:48.4180,00:39,60,0,2018-10-30 16:43:54.1570,1540932234.15699,-0.051575842934910555,-0.020610203676123224,-0.1317290022630254,0.025634765625,-0.000457763671875,-1.171142578125,53.76824951171875,18.288467407226562,-65.08616638183594,,,,,,,,,,
0,2018-10-30 16:43:48.4180,00:39,60,0,2018-10-30 16:43:54.1760,1540932234.175847,0.10749503529163135,0.1642339486318785,-0.21506650330654797,-0.01611328125,0.1144256591796875,-1.0721893310546875,53.836456298828125,18.58612060546875,-64.91526794433594,,,,,,,,,,
0,2018-10-30 16:43:48.4180,00:39,60,0,2018-10-30 16:43:54.1910,1540932234.19074,0.22314493615719433,0.1995024572639069,-0.3863887214957814,-0.01611328125,0.1144256591796875,-1.0721893310546875,53.836456298828125,18.58612060546875,-64.91526794433594,,,,,,,,,,
0,2018-10-30 16:43:48.4180,00:39,60,0,2018-10-30 16:43:54.2070,1540932234.206912,0.30545818544547243,0.16376469964780657,-0.5727825672421003,-0.0178985595703125,0.1231231689453125,-1.0266876220703125,54.02503967285156,18.859054565429688,-65.12901306152344,,,,,,,,,,
0,2018-10-30 16:43:48.4180,00:39,60,0,2018-10-30 16:43:54.2250,1540932234.2245688,0.3428881156182091,0.09017729767117308,-0.6531969826731518,-0.0032501220703125,0.082122802734375,-0.9757080078125,54.169921875,19.064102172851562,-64.87933349609375,,,,,,,,,,
0,2018-10-30 16:43:48.4180,00:39,60,0,2018-10-30 16:43:54.2400,1540932234.240066,0.2857984639623985,0.08194386884508412,-0.6210675420179999,0.0223388671875,0.0219268798828125,-0.9181060791015625,54.05375671386719,19.707763671875,-65.17390441894531,,,,,,,,,,
0,2018-10-30 16:43:48.4180,00:39,60,0,2018-10-30 16:43:54.2570,1540932234.256754,0.14282532926094954,0.14890878813901756,-0.5245729599250498,0.0643157958984375,-0.050567626953125,-0.831756591796875,54.18379211425781,19.993255615234375,-65.00009155273438,,,,,,,,,,
0,2018-10-30 16:43:48.4180,00:39,60,0,2018-10-30 16:43:54.2740,1540932234.273592,-0.0122641231359239,0.16297400712016205,-0.42385726750432423,0.0643157958984375,-0.050567626953125,-0.831756591796875,54.20173645019531,20.222381591796875,-65.14668273925781,,,,,,,,,,
0,2018-10-30 16:43:48.4180,00:39,60,0,2018-10-30 16:43:54.2900,1540932234.290226,-0.1459265803503468,0.09582852550432122,-0.352160177269429,0.0739288330078125,-0.0623321533203125,-0.85107421875,54.20173645019531,20.222381591796875,-65.14668273925781,,,,,,,,,,
0,2018-10-30 16:43:48.4180,00:39,60,0,2018-10-30 16:43:54.3070,1540932234.306881,-0.23594408835611516,-0.04622555230494137,-0.31590443482130826,0.06512451171875,-0.0588226318359375,-0.8909454345703125,54.04118347167969,20.798095703125,-65.05593872070312,,,,,,,,,,
0,2018-10-30 16:43:48.4180,00:39,60,0,2018-10-30 16:43:54.3240,1540932234.323574,-0.2966923907174766,-0.22196622105872527,-0.31075228337644095,0.06512451171875,-0.0588226318359375,-0.8909454345703125,54.03138732910156,21.188278198242188,-65.1199951171875,,,,,,,,,,
0,2018-10-30 16:43:48.4180,00:39,60,0,2018-10-30 16:43:54.3400,1540932234.340289,-0.33844889239715603,-0.3989279491723105,-0.3163148279452895,0.0603485107421875,-0.05352783203125,-0.89166259765625,53.756622314453125,22.407882690429688,-65.08953857421875,,,,,,,,,,
0,2018-10-30 16:43:48.4180,00:39,60,0,2018-10-30 16:43:54.3570,1540932234.3568568,-0.35971343475311174,-0.5316804042422533,-0.33681983675835453,0.029449462890625,-0.0535125732421875,-0.865966796875,53.672760009765625,22.890960693359375,-64.91999816894531,,,,,,,,,,
0,2018-10-30 16:43:48.4180,00:39,60,0,2018-10-30 16:43:54.3740,1540932234.37361,-0.32999522014891747,-0.5220469516311097,-0.38286216358029845,0.029449462890625,-0.0535125732421875,-0.865966796875,53.22247314453125,23.056610107421875,-65.32862854003906,,,,,,,,,,
0,2018-10-30 16:43:48.4180,00:39,60,0,2018-10-30 16:43:54.3900,1540932234.390151,-0.1936280565314101,-0.38795332863620297,-0.43306008696720205,0.0184173583984375,-0.071807861328125,-0.868988037109375,53.22247314453125,23.056610107421875,-65.32862854003906,,,,,,,,,,
0,2018-10-30 16:43:48.4180,00:39,60,0,2018-10-30 16:43:54.4070,1540932234.4068232,-0.012217784132956521,-0.165762869413693,-0.44246743720179793,0.0446929931640625,-0.1010284423828125,-0.8849029541015625,52.846038818359375,23.829742431640625,-65.47642517089844,,,,,,,,,,
0,2018-10-30 16:43:48.4180,00:39,60,0,2018-10-30 16:43:54.4240,1540932234.423502,0.14996739467232403,0.043414319458253726,-0.3972722619226082,0.0446929931640625,-0.1010284423828125,-0.8849029541015625,52.77313232421875,24.232009887695312,-65.69960021972656,,,,,,,,,,
0,2018-10-30 16:43:48.4180,00:39,60,0,2018-10-30 16:43:54.4410,1540932234.44123,0.23557817002233827,0.19473965997040918,-0.30715382011152587,0.1101837158203125,-0.1324615478515625,-0.9439849853515625,52.90626525878906,24.827041625976562,-65.74826049804688,,,,,,,,,,
0,2018-10-30 16:43:48.4180,00:39,60,0,2018-10-30 16:43:54.4570,1540932234.456846,0.24927986751468692,0.2169235255346602,-0.207539611117657,0.122406005859375,-0.131988525390625,-0.9935150146484375,52.65045166015625,25.266204833984375,-65.66775512695312,,,,,,,,,,
0,2018-10-30 16:43:48.4180,00:39,60,0,2018-10-30 16:43:54.4730,1540932234.473453,0.22717110309317612,0.1249504583404467,-0.14553775883119524,0.122406005859375,-0.131988525390625,-0.9935150146484375,52.52610778808594,25.290557861328125,-65.75167846679688,,,,,,,,,,
0,2018-10-30 16:43:48.4180,00:39,60,0,2018-10-30 16:43:54.4900,1540932234.490211,0.2156017986856539,0.021175592775547047,-0.13281264251057864,0.099151611328125,-0.10833740234375,-1.0511474609375,52.52610778808594,25.290557861328125,-65.75167846679688,,,,,,,,,,
0,2018-10-30 16:43:48.4180,00:39,60,0,2018-10-30 16:43:54.5070,1540932234.507025,0.3041937165599028,0.24738183260578747,-0.11220856410496259,0.0877838134765625,-0.092864990234375,-1.06109619140625,52.38499450683594,25.3951416015625,-66.14576721191406,,,,,,,,,,
0,2018-10-30 16:43:48.4180,00:39,60,0,2018-10-30 16:43:54.5240,1540932234.5235639,0.3041937165599028,0.24738183260578747,-0.11220856410496259,0.0905303955078125,-0.0873260498046875,-1.1201324462890625,52.407989501953125,25.934066772460938,-66.28057861328125,,,,,,,,,,
0,2018-10-30 16:43:48.4180,00:39,60,0,2018-10-30 16:43:54.5400,1540932234.540205,0.5079473778719031,0.5122409261813289,-0.026261964141489385,0.1046295166015625,-0.0702362060546875,-1.1832733154296875,52.666290283203125,25.804397583007812,-66.66163635253906,,,,,,,,,,
0,2018-10-30 16:43:48.4180,00:39,60,0,2018-10-30 16:43:54.5570,1540932234.557033,1.1976395211751738,1.2315628671406031,0.19934027075352106,0.1019134521484375,-0.044586181640625,-1.2325439453125,52.97547912597656,25.743331909179688,-66.6470947265625,,,,,,,,,,
0,2018-10-30 16:43:48.4180,00:39,60,0,2018-10-30 16:43:54.5740,1540932234.5736132,1.1976395211751738,1.2315628671406031,0.19934027075352106,0.0655975341796875,-0.046417236328125,-1.22021484375,53.55467224121094,25.162628173828125,-66.71527099609375,,,,,,,,,,
0,2018-10-30 16:43:48.4180,00:39,60,0,2018-10-30 16:43:54.5900,1540932234.590263,1.3508072365294461,1.5891913130762918,0.19867368153267423,0.078155517578125,-0.061737060546875,-1.1832122802734375,54.43586730957031,24.91131591796875,-66.52055358886719,,,,,,,,,,
0,2018-10-30 16:43:48.4180,00:39,60,0,2018-10-30 16:43:54.6070,1540932234.606923,1.2554948316443824,1.7621463153298529,0.18284704780655134,0.078155517578125,-0.061737060546875,-1.1832122802734375,54.43586730957031,24.91131591796875,-66.52055358886719,,,,,,,,,,
0,2018-10-30 16:43:48.4180,00:39,60,0,2018-10-30 16:43:54.6240,1540932234.623619,1.1954373532697873,1.5262187385724963,0.09047637066158898,0.2014312744140625,-0.1383514404296875,-1.2230682373046875,55.10969543457031,24.467117309570312,-66.65657043457031,,,,,,,,,,
0,2018-10-30 16:43:48.4180,00:39,60,0,2018-10-30 16:43:54.6400,1540932234.6401858,0.5744848598108789,-0.0015004249581506428,0.07803275046819375,0.292694091796875,-0.173553466796875,-1.1448516845703125,55.35003662109375,24.108322143554688,-66.89102172851562,,,,,,,,,,
0,2018-10-30 16:43:48.4180,00:39,60,0,2018-10-30 16:43:54.6580,1540932234.657999,-0.2939389484664437,-0.6860675810596729,0.24552267984880313,0.3523101806640625,-0.1747283935546875,-1.004241943359375,55.0802001953125,23.927581787109375,-67.30271911621094,,,,,,,,,,
0,2018-10-30 16:43:48.4180,00:39,60,0,2018-10-30 16:43:54.6740,1540932234.6736631,-0.2939389484664437,-0.6860675810596729,0.24552267984880313,0.374755859375,-0.12335205078125,-0.89154052734375,54.6220703125,24.483612060546875,-67.54112243652344,,,,,,,,,,
0,2018-10-30 16:43:48.4180,00:39,60,0,2018-10-30 16:43:54.6900,1540932234.6904259,-1.6262713038817922,-0.8962130953039724,0.5464963683346912,0.3639068603515625,-0.029541015625,-0.9066925048828125,54.01576232910156,25.225418090820312,-67.31231689453125,,,,,,,,,,
0,2018-10-30 16:43:48.4180,00:39,60,0,2018-10-30 16:43:54.7070,1540932234.706867,-1.6262713038817922,-0.8962130953039724,0.5464963683346912,0.313079833984375,0.051116943359375,-1.02081298828125,54.01576232910156,25.225418090820312,-67.31231689453125,,,,,,,,,,
0,2018-10-30 16:43:48.4180,00:39,60,0,2018-10-30 16:43:54.7240,1540932234.723635,-1.5948891462285164,-0.7983363326052713,0.6087195293077385,0.2332611083984375,0.1162567138671875,-1.135772705078125,53.792083740234375,25.813217163085938,-67.38066101074219,,,,,,,,,,
0,2018-10-30 16:43:48.4180,00:39,60,0,2018-10-30 16:43:54.7400,1540932234.740407,-0.49291995878891304,-0.8936386174781928,0.1575038742411393,0.1566009521484375,0.1417999267578125,-1.173980712890625,53.28108215332031,26.691604614257812,-67.14157104492188,,,,,,,,,,
0,2018-10-30 16:43:48.4180,00:39,60,0,2018-10-30 16:43:54.7570,1540932234.757049,-0.49291995878891304,-0.8936386174781928,0.1575038742411393,0.1087188720703125,0.11090087890625,-1.07684326171875,52.55308532714844,27.06689453125,-67.79168701171875,,,,,,,,,,
0,2018-10-30 16:43:48.4180,00:39,60,0,2018-10-30 16:43:54.7740,1540932234.773658,-0.08489065659125679,-0.996422520801474,-0.27320757096072185,0.106109619140625,0.0326080322265625,-0.9154052734375,51.81416320800781,27.522964477539062,-68.04905700683594,,,,,,,,,,
0,2018-10-30 16:43:48.4180,00:39,60,0,2018-10-30 16:43:54.7900,1540932234.7904,-0.21954700552449727,-0.8332527713411911,-0.18195062778363066,0.1335296630859375,-0.0562591552734375,-0.7890625,50.98777770996094,27.452117919921875,-68.4869384765625,,,,,,,,,,
0,2018-10-30 16:43:48.4180,00:39,60,0,2018-10-30 16:43:54.8070,1540932234.8071032,-0.21954700552449727,-0.8332527713411911,-0.18195062778363066,0.15704345703125,-0.130889892578125,-0.7412261962890625,50.98777770996094,27.452117919921875,-68.4869384765625,,,,,,,,,,
0,2018-10-30 16:43:48.4180,00:39,60,0,2018-10-30 16:43:54.8240,1540932234.823728,-0.2610350605662967,-0.19689415729228327,0.3660546876246994,0.163848876953125,-0.1612701416015625,-0.7680511474609375,50.37577819824219,27.884140014648438,-68.34803771972656,,,,,,,,,,
0,2018-10-30 16:43:48.4180,00:39,60,0,2018-10-30 16:43:54.8400,1540932234.840438,-0.05856184710640642,0.0665100513797479,0.5483773590126141,0.1398468017578125,-0.1420745849609375,-0.8416290283203125,50.26939392089844,28.137619018554688,-68.57856750488281,,,,,,,,,,
0,2018-10-30 16:43:48.4180,00:39,60,0,2018-10-30 16:43:54.8570,1540932234.857067,-0.05856184710640642,0.0665100513797479,0.5483773590126141,0.1086883544921875,-0.1089935302734375,-0.8758697509765625,50.270050048828125,28.137680053710938,-68.50047302246094,,,,,,,,,,
0,2018-10-30 16:43:48.4180,00:39,60,0,2018-10-30 16:43:54.8750,1540932234.874775,0.11333907598770122,0.1997013953973358,0.6384526576140371,0.077911376953125,-0.1013641357421875,-0.88946533203125,50.39048767089844,28.112930297851562,-68.8851318359375,,,,,,,,,,
0,2018-10-30 16:43:48.4180,00:39,60,0,2018-10-30 16:43:54.8910,1540932234.891437,-0.03836150392204639,0.09212912843409216,0.5848133974665332,0.0498809814453125,-0.099395751953125,-0.876373291015625,50.74290466308594,27.81048583984375,-68.79916381835938,,,,,,,,,,
0,2018-10-30 16:43:48.4180,00:39,60,0,2018-10-30 16:43:54.9070,1540932234.907088,-0.2201254441132625,-0.08628375615747724,0.46684228539485717,0.0195159912109375,-0.08831787109375,-0.880767822265625,50.54254150390625,27.927536010742188,-68.88375854492188,,,,,,,,,,
0,2018-10-30 16:43:48.4180,00:39,60,0,2018-10-30 16:43:54.9240,1540932234.923765,-0.329576304909448,-0.2047563414624152,0.3328647762234779,0.0023345947265625,-0.07757568359375,-0.9151763916015625,50.54254150390625,27.927536010742188,-68.88375854492188,,,,,,,,,,
0,2018-10-30 16:43:48.4180,00:39,60,0,2018-10-30 16:43:54.9400,1540932234.940408,-0.31379068386411235,-0.23153682306814302,0.23002521283341404,-0.0048065185546875,-0.0735015869140625,-0.9564056396484375,50.24430847167969,27.90777587890625,-69.291015625,,,,,,,,,,
0,2018-10-30 16:43:48.4180,00:39,60,0,2018-10-30 16:43:54.9570,1540932234.957161,-0.15623700851058858,-0.19927928436455825,0.17005881456809985,-0.0067291259765625,-0.0829315185546875,-1.0142364501953125,50.065155029296875,28.254302978515625,-69.13175964355469,,,,,,,,,,
0,2018-10-30 16:43:48.4180,00:39,60,0,2018-10-30 16:43:54.9740,1540932234.973666,0.09052484019342842,-0.10188268961039836,0.10586784386559293,-0.0058135986328125,-0.0895233154296875,-1.0540771484375,49.84996032714844,28.4517822265625,-69.29222106933594,,,,,,,,,,
0,2018-10-30 16:43:48.4180,00:39,60,0,2018-10-30 16:43:54.9910,1540932234.990516,0.34044253478918934,-0.010907508876637537,0.01703837202210895,-0.0065155029296875,-0.093536376953125,-1.076629638671875,49.4422607421875,28.375946044921875,-69.70750427246094,,,,,,,,,,
0,2018-10-30 16:43:48.4180,00:39,60,0,2018-10-30 16:43:55.0070,1540932235.007174,0.48788338853535523,0.05304510890830728,-0.10071302925963556,-0.0055694580078125,-0.09716796875,-1.0738983154296875,49.216949462890625,27.95391845703125,-69.8916015625,,,,,,,,,,
0,2018-10-30 16:43:48.4180,00:39,60,0,2018-10-30 16:43:55.0240,1540932235.0237541,0.47860200582032003,0.030118487716033128,-0.2956359147130422,-0.015838623046875,-0.110076904296875,-1.05108642578125,49.216949462890625,27.95391845703125,-69.8916015625,,,,,,,,,,
0,2018-10-30 16:43:48.4180,00:39,60,0,2018-10-30 16:43:55.0400,1540932235.040452,0.36475959238659383,-0.13858637575387042,-0.5699572196416351,-0.0772247314453125,-0.04083251953125,-1.0559539794921875,48.74543762207031,27.890106201171875,-70.54409790039062,,,,,,,,,,
0,2018-10-30 16:43:48.4180,00:39,60,0,2018-10-30 16:43:55.0570,1540932235.057201,0.20726131078374374,-0.17523919552052197,-1.0336476538863835,-0.0772247314453125,-0.04083251953125,-1.0559539794921875,47.98857116699219,28.1170654296875,-70.65486145019531,,,,,,,,,,
0,2018-10-30 16:43:48.4180,00:39,60,0,2018-10-30 16:43:55.0740,1540932235.073782,0.11369221114824574,-0.1589800644333702,-1.0882190204154152,-0.09783935546875,-0.0883941650390625,-1.047027587890625,47.03639221191406,28.770858764648438,-70.83845520019531,,,,,,,,,,
0,2018-10-30 16:43:48.4180,00:39,60,0,2018-10-30 16:43:55.0910,1540932235.090621,0.14464053985994754,-0.06187455318635598,-0.832170728990292,0.0280914306640625,-0.3019561767578125,-1.1629791259765625,46.30467224121094,28.836517333984375,-71.34414672851562,,,,,,,,,,
0,2018-10-30 16:43:48.4180,00:39,60,0,2018-10-30 16:43:55.1080,1540932235.108282,0.15092533371642555,0.1110261205809674,-0.5374719806648487,0.0280914306640625,-0.3019561767578125,-1.1629791259765625,45.867401123046875,28.612289428710938,-71.29824829101562,,,,,,,,,,
0,2018-10-30 16:43:48.4180,00:39,60,0,2018-10-30 16:43:55.1300,1540932235.129683,-0.01924986099131075,0.2392227059741117,-0.2706282994449801,0.04058837890625,-0.34356689453125,-1.1468353271484375,45.53834533691406,28.44403076171875,-71.40045166015625,,,,,,,,,,
0,2018-10-30 16:43:48.4180,00:39,60,0,2018-10-30 16:43:55.1410,1540932235.1406422,-0.4617489898100806,0.35567235411502546,0.07122677598638724,0.1217041015625,-0.2996978759765625,-1.0906982421875,45.53834533691406,28.44403076171875,-71.40045166015625,,,,,,,,,,
0,2018-10-30 16:43:48.4180,00:39,60,0,2018-10-30 16:43:55.1580,1540932235.157563,-1.0775618486812453,0.46243821590019313,0.5458984886699684,0.1217041015625,-0.2996978759765625,-1.0906982421875,45.61286926269531,29.05157470703125,-71.06155395507812,,,,,,,,,,
0,2018-10-30 16:43:48.4180,00:39,60,0,2018-10-30 16:43:55.1740,1540932235.17381,-1.38000746630162,0.4488449090642107,0.8843468484349064,0.060150146484375,0.0020904541015625,-1.3859405517578125,46.03984069824219,29.356674194335938,-70.63667297363281,,,,,,,,,,
0,2018-10-30 16:43:48.4180,00:39,60,0,2018-10-30 16:43:55.1920,1540932235.1922169,-1.0514705931656299,0.28785362537561265,0.8647936533954356,-0.0421905517578125,0.154083251953125,-1.5434112548828125,46.52862548828125,29.6495361328125,-70.20887756347656,,,,,,,,,,
0,2018-10-30 16:43:48.4180,00:39,60,0,2018-10-30 16:43:55.2080,1540932235.208188,-0.19220086850323664,0.09271262702892852,0.5377332367677854,-0.0421905517578125,0.154083251953125,-1.5434112548828125,46.419158935546875,29.593475341796875,-70.2169189453125,,,,,,,,,,
0,2018-10-30 16:43:48.4180,00:39,60,0,2018-10-30 16:43:55.2240,1540932235.2239308,0.6528004379868391,0.038669099027950536,0.12303964025831485,-0.1328125,0.1680450439453125,-1.3018798828125,46.23316955566406,28.929656982421875,-70.79818725585938,,,,,,,,,,
0,2018-10-30 16:43:48.4180,00:39,60,0,2018-10-30 16:43:55.2410,1540932235.240524,1.0659739021460923,0.05761642491942829,-0.1972241229513441,-0.1328125,0.1680450439453125,-1.3018798828125,46.23316955566406,28.929656982421875,-70.79818725585938,,,,,,,,,,
0,2018-10-30 16:43:48.4180,00:39,60,0,2018-10-30 16:43:55.2570,1540932235.257275,1.1243272237391455,0.05451836962333911,-0.37393418234191683,-0.1055755615234375,0.0865936279296875,-1.078704833984375,45.69038391113281,28.258621215820312,-71.39909362792969,,,,,,,,,,
0,2018-10-30 16:43:48.4180,00:39,60,0,2018-10-30 16:43:55.2740,1540932235.273874,0.9448727768452462,0.00801824541001057,-0.48638882253160276,-0.052215576171875,-0.0214996337890625,-0.8517303466796875,45.240936279296875,27.72393798828125,-72.22404479980469,,,,,,,,,,
0,2018-10-30 16:43:48.4180,00:39,60,0,2018-10-30 16:43:55.2910,1540932235.2908468,0.6713970255627534,-0.047476705385060596,-0.5581391759882995,-0.052215576171875,-0.0214996337890625,-0.8517303466796875,44.81019592285156,27.109222412109375,-72.50454711914062,,,,,,,,,,
0,2018-10-30 16:43:48.4180,00:39,60,0,2018-10-30 16:43:55.3070,1540932235.307437,0.40109709388018,-0.08597056841328392,-0.5613341703480677,0.01959228515625,-0.0511474609375,-0.798828125,44.108154296875,27.013992309570312,-72.8585205078125,,,,,,,,,,
0,2018-10-30 16:43:48.4180,00:39,60,0,2018-10-30 16:43:55.3240,1540932235.3241339,0.2183981178302371,-0.10707212531052676,-0.5259777774000667,0.0484161376953125,-0.0498809814453125,-0.82489013671875,43.73992919921875,26.38714599609375,-73.05801391601562,,,,,,,,,,
0,2018-10-30 16:43:48.4180,00:39,60,0,2018-10-30 16:43:55.3410,1540932235.340695,0.16161659391254865,-0.19424457832376343,-0.4993000938124159,0.0484161376953125,-0.0498809814453125,-0.82489013671875,43.73992919921875,26.38714599609375,-73.05801391601562,,,,,,,,,,
0,2018-10-30 16:43:48.4180,00:39,60,0,2018-10-30 16:43:55.3580,1540932235.35759,0.16459081221794913,-0.3261866334739952,-0.5101721826465554,0.0462493896484375,-0.0528564453125,-0.8358306884765625,42.91552734375,26.316482543945312,-73.26158142089844,,,,,,,,,,
0,2018-10-30 16:43:48.4180,00:39,60,0,2018-10-30 16:43:55.3740,1540932235.374146,0.1177039970143411,-0.4964680883092256,-0.5510636896041771,0.02923583984375,-0.068115234375,-0.8013916015625,42.21217346191406,26.221145629882812,-73.77175903320312,,,,,,,,,,
0,2018-10-30 16:43:48.4180,00:39,60,0,2018-10-30 16:43:55.3910,1540932235.3910298,0.00885208114731438,-0.6412734778406491,-0.5929797146331521,0.02923583984375,-0.068115234375,-0.8013916015625,41.17515563964844,26.348236083984375,-73.82342529296875,,,,,,,,,,
0,2018-10-30 16:43:48.4180,00:39,60,0,2018-10-30 16:43:55.4070,1540932235.407295,-0.12227664460600715,-0.69067484974551,-0.6369144157684073,0.02105712890625,-0.06591796875,-0.7487640380859375,40.4892578125,26.172744750976562,-73.94534301757812,,,,,,,,,,
0,2018-10-30 16:43:48.4180,00:39,60,0,2018-10-30 16:43:55.4240,1540932235.423717,-0.22548239264595688,-0.6142349359252925,-0.8413298726112924,0.016021728515625,-0.0412750244140625,-0.759490966796875,39.465789794921875,26.219284057617188,-74.07734680175781,,,,,,,,,,
0,2018-10-30 16:43:48.4180,00:39,60,0,2018-10-30 16:43:55.4400,1540932235.439877,-0.22548239264595688,-0.6142349359252925,-0.8413298726112924,0.0019989013671875,-0.02008056640625,-0.779449462890625,39.465789794921875,26.219284057617188,-74.07734680175781,,,,,,,,,,
0,2018-10-30 16:43:48.4180,00:39,60,0,2018-10-30 16:43:55.4580,1540932235.458478,-0.2340503145049598,-0.569984383884754,-1.0672250552262117,-0.0021209716796875,-0.0134124755859375,-0.8083953857421875,38.50352478027344,26.253524780273438,-74.28453063964844,,,,,,,,,,
0,2018-10-30 16:43:48.4180,00:39,60,0,2018-10-30 16:43:55.4740,1540932235.4739861,-0.20056266169386744,-0.5497358374846635,-1.3424196106762416,0.030120849609375,-0.034820556640625,-0.849761962890625,37.357666015625,26.324630737304688,-74.26614379882812,,,,,,,,,,
0,2018-10-30 16:43:48.4180,00:39,60,0,2018-10-30 16:43:55.4910,1540932235.490766,-0.20056266169386744,-0.5497358374846635,-1.3424196106762416,0.0836944580078125,-0.111053466796875,-0.89703369140625,36.27107238769531,26.383255004882812,-74.55726623535156,,,,,,,,,,
0,2018-10-30 16:43:48.4180,00:39,60,0,2018-10-30 16:43:55.5070,1540932235.507446,-0.12062095735630489,-0.5274531686439705,-1.1560814249967053,0.1262054443359375,-0.1858673095703125,-0.9261627197265625,35.373199462890625,26.405548095703125,-74.44915771484375,,,,,,,,,,
0,2018-10-30 16:43:48.4180,00:39,60,0,2018-10-30 16:43:55.5240,1540932235.524107,0.1016555219694146,-0.16791177409727795,-0.448922673368041,0.1373443603515625,-0.2281646728515625,-0.922821044921875,34.92897033691406,25.871383666992188,-74.64933776855469,,,,,,,,,,
0,2018-10-30 16:43:48.4180,00:39,60,0,2018-10-30 16:43:55.5400,1540932235.540358,0.1016555219694146,-0.16791177409727795,-0.448922673368041,0.1053314208984375,-0.241363525390625,-0.8938751220703125,34.92897033691406,25.871383666992188,-74.64933776855469,,,,,,,,,,
0,2018-10-30 16:43:48.4180,00:39,60,0,2018-10-30 16:43:55.5570,1540932235.557409,0.0994541530123551,0.6075802289934026,0.10352825684795833,0.0660858154296875,-0.241119384765625,-0.8856658935546875,34.615875244140625,25.932052612304688,-75.13246154785156,,,,,,,,,,
0,2018-10-30 16:43:48.4180,00:39,60,0,2018-10-30 16:43:55.5740,1540932235.57407,0.05710030430017093,0.8527452463078081,0.2955251272116949,0.044525146484375,-0.215118408203125,-0.9356231689453125,34.887847900390625,25.412582397460938,-74.98088073730469,,,,,,,,,,
0,2018-10-30 16:43:48.4180,00:39,60,0,2018-10-30 16:43:55.5910,1540932235.590715,0.05710030430017093,0.8527452463078081,0.2955251272116949,0.0632781982421875,-0.1789093017578125,-1.082122802734375,35.53070068359375,25.129135131835938,-75.4248046875,,,,,,,,,,
0,2018-10-30 16:43:48.4180,00:39,60,0,2018-10-30 16:43:55.6070,1540932235.607417,0.24706811222937614,1.039171049987208,0.553787038134892,0.0924072265625,-0.13690185546875,-1.1749420166015625,36.34242248535156,24.58001708984375,-75.55722045898438,,,,,,,,,,
0,2018-10-30 16:43:48.4180,00:39,60,0,2018-10-30 16:43:55.6240,1540932235.6240401,0.14593829825914317,0.8409285342350176,0.6028264864476112,0.117034912109375,-0.1102294921875,-1.217681884765625,37.11283874511719,24.272491455078125,-75.52676391601562,,,,,,,,,,
0,2018-10-30 16:43:48.4180,00:39,60,0,2018-10-30 16:43:55.6410,1540932235.640763,0.14593829825914317,0.8409285342350176,0.6028264864476112,0.110748291015625,-0.0977630615234375,-1.2362213134765625,37.47943115234375,23.8895263671875,-75.44302368164062,,,,,,,,,,
0,2018-10-30 16:43:48.4180,00:39,60,0,2018-10-30 16:43:55.6570,1540932235.65739,-0.2284515509452862,0.24812485454991956,0.4394143893281311,0.0795745849609375,-0.0870513916015625,-1.255828857421875,37.47943115234375,23.8895263671875,-75.44302368164062,,,,,,,,,,
0,2018-10-30 16:43:48.4180,00:39,60,0,2018-10-30 16:43:55.6740,1540932235.674087,-0.23751109234151777,0.1556732173078188,0.3193660116061932,0.0864715576171875,-0.0515899658203125,-1.266845703125,37.69139099121094,23.691726684570312,-75.67303466796875,,,,,,,,,,
0,2018-10-30 16:43:48.4180,00:39,60,0,2018-10-30 16:43:55.6940,1540932235.693818,-0.2245926305257614,0.3205556456651316,0.4395028062763217,0.2119598388671875,-0.099822998046875,-1.1773529052734375,37.53996276855469,23.877182006835938,-75.59629821777344,,,,,,,,,,
0,2018-10-30 16:43:48.4180,00:39,60,0,2018-10-30 16:43:55.7090,1540932235.70907,-0.3353042317819905,0.5297240461054811,0.8713447633609215,0.2119598388671875,-0.099822998046875,-1.1773529052734375,37.89173889160156,23.574661254882812,-75.58843994140625,,,,,,,,,,
0,2018-10-30 16:43:48.4180,00:39,60,0,2018-10-30 16:43:55.7260,1540932235.725671,-0.565446623703368,0.48168408214986874,1.2654180361821266,0.251495361328125,-0.08154296875,-1.1530303955078125,38.576995849609375,23.750091552734375,-75.54461669921875,,,,,,,,,,
0,2018-10-30 16:43:48.4180,00:39,60,0,2018-10-30 16:43:55.7420,1540932235.742451,-0.7411835640316258,0.20937239857984954,1.3529351022404195,0.2108001708984375,0.0262908935546875,-1.1750335693359375,39.29258728027344,23.764739990234375,-75.27098083496094,,,,,,,,,,
0,2018-10-30 16:43:48.4180,00:39,60,0,2018-10-30 16:43:55.7590,1540932235.759165,-0.7186284538114177,-0.1338062679132872,1.1051372838723617,0.1234588623046875,0.147369384765625,-1.183807373046875,39.254547119140625,24.006668090820312,-74.71762084960938,,,,,,,,,,
0,2018-10-30 16:43:48.4180,00:39,60,0,2018-10-30 16:43:55.7760,1540932235.77577,-0.5450148518202801,-0.37823705171515787,0.6850161650613096,0.043701171875,0.2216033935546875,-1.1697540283203125,39.254547119140625,24.006668090820312,-74.71762084960938,,,,,,,,,,
0,2018-10-30 16:43:48.4180,00:39,60,0,2018-10-30 16:43:55.7920,1540932235.792331,-0.3351969063900603,-0.46209972812564404,0.3261235165561603,0.0074615478515625,0.2020263671875,-1.1197357177734375,39.08128356933594,23.962631225585938,-74.96287536621094,,,,,,,,,,
0,2018-10-30 16:43:48.4180,00:39,60,0,2018-10-30 16:43:55.8090,1540932235.809077,-0.19062188029292865,-0.37207529590104155,0.18698773066940652,0.0135955810546875,0.1029052734375,-1.0438385009765625,38.58659362792969,24.060317993164062,-74.98614501953125,,,,,,,,,,
0,2018-10-30 16:43:48.4180,00:39,60,0,2018-10-30 16:43:55.8260,1540932235.825773,-0.11973492366163553,-0.11873171087900268,0.22583419622595635,0.049468994140625,-0.0608367919921875,-0.8991851806640625,38.41656494140625,24.016555786132812,-74.84089660644531,,,,,,,,,,
0,2018-10-30 16:43:48.4180,00:39,60,0,2018-10-30 16:43:55.8420,1540932235.84229,-0.12726874006936068,0.21732699443980721,0.32476983177407304,0.049468994140625,-0.0608367919921875,-0.8991851806640625,38.53843688964844,23.682708740234375,-74.45639038085938,,,,,,,,,,
0,2018-10-30 16:43:48.4180,00:39,60,0,2018-10-30 16:43:55.8590,1540932235.859249,-0.17984566525803203,0.4748562697471236,0.424690304293301,0.082061767578125,-0.0751800537109375,-0.863800048828125,38.98486328125,23.51666259765625,-74.51637268066406,,,,,,,,,,
0,2018-10-30 16:43:48.4180,00:39,60,0,2018-10-30 16:43:55.8760,1540932235.8758168,-0.213285913801721,0.5256744433519066,0.5093591195657542,0.1145172119140625,-0.09002685546875,-0.93646240234375,38.98486328125,23.51666259765625,-74.51637268066406,,,,,,,,,,
0,2018-10-30 16:43:48.4180,00:39,60,0,2018-10-30 16:43:55.8920,1540932235.892479,-0.187675358862865,0.3499936957226495,0.5626793330146667,0.1145172119140625,-0.09002685546875,-0.93646240234375,39.47953796386719,23.418991088867188,-74.49310302734375,,,,,,,,,,
0,2018-10-30 16:43:48.4180,00:39,60,0,2018-10-30 16:43:55.9100,1540932235.909772,-0.08915304591592861,0.07209177070844498,0.5783757381634846,0.1088409423828125,-0.103912353515625,-0.9734649658203125,39.67988586425781,23.30194091796875,-74.40849304199219,,,,,,,,,,
0,2018-10-30 16:43:48.4180,00:39,60,0,2018-10-30 16:43:55.9260,1540932235.926272,-0.004672516132544023,-0.14060744870513156,0.5513214835976967,0.02947998046875,-0.131317138671875,-0.89453125,39.384246826171875,23.282440185546875,-74.50337219238281,,,,,,,,,,
0,2018-10-30 16:43:48.4180,00:39,60,0,2018-10-30 16:43:55.9420,1540932235.9418092,0.029944849612959963,-0.28452387506468657,0.48367133295528586,0.02947998046875,-0.131317138671875,-0.89453125,39.48997497558594,23.02886962890625,-74.35092163085938,,,,,,,,,,
0,2018-10-30 16:43:48.4180,00:39,60,0,2018-10-30 16:43:55.9580,1540932235.95769,0.003511910529487491,-0.3099160507941561,0.4054734664995072,-0.028167724609375,-0.1529541015625,-0.786224365234375,39.351654052734375,22.433334350585938,-74.92704772949219,,,,,,,,,,
0,2018-10-30 16:43:48.4180,00:39,60,0,2018-10-30 16:43:55.9740,1540932235.974294,-0.013261476964158575,-0.19607896368261002,0.378846382972568,-0.028167724609375,-0.1529541015625,-0.786224365234375,39.351654052734375,22.433334350585938,-74.92704772949219,,,,,,,,,,
0,2018-10-30 16:43:48.4180,00:39,60,0,2018-10-30 16:43:55.9910,1540932235.990938,0.01013732268938662,-0.06117520708410117,0.39721180816586343,-0.026275634765625,-0.1637115478515625,-0.8011932373046875,39.181640625,22.389602661132812,-74.78179931640625,,,,,,,,,,
0,2018-10-30 16:43:48.4180,00:39,60,0,2018-10-30 16:43:56.0080,1540932236.007691,0.06150091168541787,0.016220515251345616,0.3940823275689113,-0.01861572265625,-0.1503753662109375,-0.917266845703125,39.02452087402344,22.265243530273438,-74.79498291015625,,,,,,,,,,
0,2018-10-30 16:43:48.4180,00:39,60,0,2018-10-30 16:43:56.0240,1540932236.024291,0.14587970871516143,0.0090880372198954,0.3522896068984068,-0.01861572265625,-0.1503753662109375,-0.917266845703125,39.122589111328125,21.701675415039062,-74.96675109863281,,,,,,,,,,
