SessionID,SessionDate,SessionDuration,SessionFrequency,RecordID,Timestamp,timeIntervalSince1970,GyroX,GyroY,GyroZ,AccX,AccY,AccZ,MagX,MagY,MagZ,WatchTimestamp,WatchtImeIntervalSince1970,WatchGyroX,WatchGyroY,WatchGyroZ,WatchAccX,WatchAccY,WatchAccZ
0,2018-10-30 16:42:25.5930,00:36,60,0,2018-10-30 16:42:25.6100,1540932145.610334,-0.0020700751153185917,0.07213438128588624,-0.18195701937024686,0.023712158203125,-0.0704803466796875,-1.0482330322265625,38.408355712890625,20.5316162109375,-71.14620971679688,,,,,,,,,,
0,2018-10-30 16:42:25.5930,00:36,60,0,2018-10-30 16:42:25.6300,1540932145.62998,0.09821205467994215,0.1997719691662229,-0.15398131106729146,0.05120849609375,-0.113067626953125,-1.039947509765625,38.58094787597656,20.575607299804688,-70.97904968261719,,,,,,,,,,
0,2018-10-30 16:42:25.5930,00:36,60,0,2018-10-30 16:42:25.6470,1540932145.646734,0.10916350571456598,0.14535932703815993,-0.09729539463273687,0.05120849609375,-0.113067626953125,-1.039947509765625,38.58094787597656,20.575607299804688,-70.97904968261719,,,,,,,,,,
0,2018-10-30 16:42:25.5930,00:36,60,0,2018-10-30 16:42:25.6640,1540932145.664115,0.04781173105019256,0.13177161284046665,-0.06838411783883666,0.057098388671875,-0.123992919921875,-1.0128021240234375,38.65632629394531,20.482833862304688,-71.05647277832031,,,,,,,,,,
0,2018-10-30 16:42:25.5930,00:36,60,0,2018-10-30 16:42:25.6830,1540932145.6834788,-0.014362960391015348,0.026362098998476365,-0.06635745224928637,0.04547119140625,-0.1209869384765625,-1.0191192626953125,38.68098449707031,20.012237548828125,-70.91653442382812,,,,,,,,,,
0,2018-10-30 16:42:25.5930,00:36,60,0,2018-10-30 16:42:25.6980,1540932145.69807,-0.05217265733519732,-0.07588650894569889,-0.10181291478983828,0.04547119140625,-0.1209869384765625,-1.0191192626953125,38.514068603515625,20.278076171875,-70.9937744140625,,,,,,,,,,
0,2018-10-30 16:42:25.5930,00:36,60,0,2018-10-30 16:42:25.7140,1540932145.714138,-0.07567026026518445,-0.11447038681876688,-0.1339807049646874,0.0384521484375,-0.116851806640625,-1.006256103515625,38.4727783203125,20.519668579101562,-70.83091735839844,,,,,,,,,,
0,2018-10-30 16:42:25.5930,00:36,60,0,2018-10-30 16:42:25.7310,1540932145.730875,-0.07689078699276776,-0.13176442230552343,-0.13400174393729902,0.0350799560546875,-0.12493896484375,-1.007598876953125,38.244049072265625,20.7977294921875,-70.91107177734375,,,,,,,,,,
0,2018-10-30 16:42:25.5930,00:36,60,0,2018-10-30 16:42:25.7480,1540932145.747538,-0.05258411572361456,-0.12020284106516245,-0.10829265203811007,0.0350799560546875,-0.12493896484375,-1.007598876953125,38.244049072265625,20.7977294921875,-70.91107177734375,,,,,,,,,,
0,2018-10-30 16:42:25.5930,00:36,60,0,2018-10-30 16:42:25.7640,1540932145.764113,-0.00413295969569397,-0.11862891286092561,-0.07724738426272938,0.0132598876953125,-0.11126708984375,-1.014892578125,38.24028015136719,20.48809814453125,-70.76667785644531,,,,,,,,,,
0,2018-10-30 16:42:25.5930,00:36,60,0,2018-10-30 16:42:25.7810,1540932145.780834,0.12403726040265854,-0.06458139011831251,-0.10612483891078558,-0.007049560546875,-0.106842041015625,-1.011627197265625,38.06700134277344,20.444046020507812,-71.01191711425781,,,,,,,,,,
0,2018-10-30 16:42:25.5930,00:36,60,0,2018-10-30 16:42:25.7980,1540932145.797834,0.12403726040265854,-0.06458139011831251,-0.10612483891078558,-0.007049560546875,-0.106842041015625,-1.011627197265625,38.28157043457031,20.246505737304688,-70.92953491210938,,,,,,,,,,
0,2018-10-30 16:42:25.5930,00:36,60,0,2018-10-30 16:42:25.8150,1540932145.814815,0.12458134421336173,-0.015777098929847425,-0.14033234416452636,-0.022735595703125,-0.1260833740234375,-0.993927001953125,37.98658752441406,20.22705078125,-70.94630432128906,,,,,,,,,,
0,2018-10-30 16:42:25.5930,00:36,60,0,2018-10-30 16:42:25.8310,1540932145.830899,0.02974244937011394,0.09447856914776007,-0.16587418954725833,-0.016998291015625,-0.1371612548828125,-0.99554443359375,37.914306640625,20.629364013671875,-71.09136962890625,,,,,,,,,,
0,2018-10-30 16:42:25.5930,00:36,60,0,2018-10-30 16:42:25.8480,1540932145.8477468,0.02974244937011394,0.09447856914776007,-0.16587418954725833,-0.016998291015625,-0.1371612548828125,-0.99554443359375,38.17144775390625,20.190338134765625,-71.01567077636719,,,,,,,,,,
0,2018-10-30 16:42:25.5930,00:36,60,0,2018-10-30 16:42:25.8630,1540932145.863439,-0.023953269792499694,0.11001225515397424,-0.13478711014276337,0.0111236572265625,-0.147369384765625,-1.01959228515625,38.17144775390625,20.190338134765625,-71.01567077636719,,,,,,,,,,
0,2018-10-30 16:42:25.5930,00:36,60,0,2018-10-30 16:42:25.8790,1540932145.879298,-0.04489024333437564,0.024616130587820414,-0.0974072473985202,0.0111236572265625,-0.147369384765625,-1.01959228515625,38.061309814453125,20.13421630859375,-71.10182189941406,,,,,,,,,,
0,2018-10-30 16:42:25.5930,00:36,60,0,2018-10-30 16:42:25.8960,1540932145.8960261,-0.046045522615252014,-0.09543570924353455,-0.09648419576469873,-0.0350341796875,-0.1387481689453125,-1.014984130859375,37.99818420410156,20.14630126953125,-71.26092529296875,,,,,,,,,,
0,2018-10-30 16:42:25.5930,00:36,60,0,2018-10-30 16:42:25.9130,1540932145.912675,-0.011153052329142842,-0.1232327194373456,-0.26143959473587974,-0.0685882568359375,-0.139190673828125,-0.9899749755859375,37.94743347167969,19.768447875976562,-71.0435791015625,,,,,,,,,,
0,2018-10-30 16:42:25.5930,00:36,60,0,2018-10-30 16:42:25.9290,1540932145.9292989,-0.011153052329142842,-0.1232327194373456,-0.26143959473587974,-0.0685882568359375,-0.139190673828125,-0.9899749755859375,37.82881164550781,20.102630615234375,-71.03758239746094,,,,,,,,,,
0,2018-10-30 16:42:25.5930,00:36,60,0,2018-10-30 16:42:25.9460,1540932145.9461899,0.020503144600302038,-0.02699486607347919,-0.33093451706538846,-0.0893707275390625,-0.1807708740234375,-0.9864349365234375,37.82881164550781,20.102630615234375,-71.03758239746094,,,,,,,,,,
0,2018-10-30 16:42:25.5930,00:36,60,0,2018-10-30 16:42:25.9630,1540932145.962729,0.05196945814402427,0.17496835203766092,-0.3317638254288391,-0.0745697021484375,-0.20751953125,-0.9929962158203125,37.60072326660156,20.380752563476562,-71.03962707519531,,,,,,,,,,
0,2018-10-30 16:42:25.5930,00:36,60,0,2018-10-30 16:42:25.9790,1540932145.9794478,0.05196945814402427,0.17496835203766092,-0.3317638254288391,-0.0745697021484375,-0.20751953125,-0.9929962158203125,37.62782287597656,20.219635009765625,-71.20028686523438,,,,,,,,,,
0,2018-10-30 16:42:25.5930,00:36,60,0,2018-10-30 16:42:25.9960,1540932145.9960852,0.016422116545864614,0.22474656123676798,-0.2524500944763173,-0.0081939697265625,-0.22662353515625,-1.016815185546875,37.85719299316406,19.941650390625,-71.04202270507812,,,,,,,,,,
0,2018-10-30 16:42:25.5930,00:36,60,0,2018-10-30 16:42:26.0130,1540932146.0129042,-0.12825437598879902,0.13666783450457734,-0.05869793463810947,0.015289306640625,-0.224365234375,-1.0244293212890625,37.85719299316406,19.941650390625,-71.04202270507812,,,,,,,,,,
0,2018-10-30 16:42:25.5930,00:36,60,0,2018-10-30 16:42:26.0290,1540932146.02932,-0.12825437598879902,0.13666783450457734,-0.05869793463810947,0.0179290771484375,-0.20916748046875,-1.0364990234375,37.937652587890625,20.15863037109375,-71.10763549804688,,,,,,,,,,
0,2018-10-30 16:42:25.5930,00:36,60,0,2018-10-30 16:42:26.0460,1540932146.04613,-0.12315815092682338,-0.09389240739183362,-0.02685771327734011,0.006744384765625,-0.1836395263671875,-1.0531158447265625,38.0316162109375,20.295089721679688,-71.25357055664062,,,,,,,,,,
0,2018-10-30 16:42:25.5930,00:36,60,0,2018-10-30 16:42:26.0640,1540932146.064221,-0.009527192483649466,-0.2418677575687784,-0.08061069040339044,-0.0110321044921875,-0.168365478515625,-1.06109619140625,38.0316162109375,20.295089721679688,-71.25357055664062,,,,,,,,,,
0,2018-10-30 16:42:25.5930,00:36,60,0,2018-10-30 16:42:26.0790,1540932146.0794911,-0.009527192483649466,-0.2418677575687784,-0.08061069040339044,-0.02886962890625,-0.1730194091796875,-1.05517578125,37.87451171875,20.170730590820312,-71.26675415039062,,,,,,,,,,
0,2018-10-30 16:42:25.5930,00:36,60,0,2018-10-30 16:42:26.0960,1540932146.095955,0.3285467268320234,-0.4602693375084326,-0.3722358845147733,-0.0503082275390625,-0.17852783203125,-1.0303955078125,37.54736328125,20.002639770507812,-71.13467407226562,,,,,,,,,,
0,2018-10-30 16:42:25.5930,00:36,60,0,2018-10-30 16:42:26.1130,1540932146.112914,0.5171786931584449,-0.4973317514507383,-0.4826257759113208,-0.0554962158203125,-0.195953369140625,-1.0233612060546875,37.307220458984375,19.661056518554688,-71.39463806152344,,,,,,,,,,
0,2018-10-30 16:42:25.5930,00:36,60,0,2018-10-30 16:42:26.1290,1540932146.129436,0.5171786931584449,-0.4973317514507383,-0.4826257759113208,-0.0475616455078125,-0.2289276123046875,-1.0203399658203125,36.74433898925781,19.4610595703125,-71.58880615234375,,,,,,,,,,
0,2018-10-30 16:42:25.5930,00:36,60,0,2018-10-30 16:42:26.1460,1540932146.1461282,0.4878053579154159,-0.5720193052736835,-0.3981127555626372,-0.03851318359375,-0.2671356201171875,-0.986663818359375,36.315582275390625,18.846527099609375,-71.63502502441406,,,,,,,,,,
0,2018-10-30 16:42:25.5930,00:36,60,0,2018-10-30 16:42:26.1630,1540932146.162776,0.26428145393510327,-0.32798746300310677,-0.29923863903570136,-0.051422119140625,-0.2852935791015625,-0.9350433349609375,36.315582275390625,18.846527099609375,-71.63502502441406,,,,,,,,,,
0,2018-10-30 16:42:25.5930,00:36,60,0,2018-10-30 16:42:26.1800,1540932146.180049,0.025585521224609258,-0.011436412669127273,-0.17671245623555382,-0.0595245361328125,-0.2883148193359375,-0.9373931884765625,36.12812805175781,18.882980346679688,-71.8780517578125,,,,,,,,,,
0,2018-10-30 16:42:25.5930,00:36,60,0,2018-10-30 16:42:26.1960,1540932146.1960468,-0.20679419232854385,0.2074778257803672,0.0035183021161036814,-0.0402679443359375,-0.2868499755859375,-0.99053955078125,36.00447082519531,18.907394409179688,-71.88386535644531,,,,,,,,,,
0,2018-10-30 16:42:25.5930,00:36,60,0,2018-10-30 16:42:26.2130,1540932146.212914,-0.34913642416775303,0.2556080708969332,0.2102882596787278,-0.0044403076171875,-0.2743988037109375,-1.0802001953125,36.37677001953125,18.834259033203125,-71.71023559570312,,,,,,,,,,
0,2018-10-30 16:42:25.5930,00:36,60,0,2018-10-30 16:42:26.2290,1540932146.229387,-0.3431435127667477,0.25495506379764576,0.3591357951126735,0.018951416015625,-0.2329559326171875,-1.154205322265625,36.61122131347656,18.866012573242188,-71.5401611328125,,,,,,,,,,
0,2018-10-30 16:42:25.5930,00:36,60,0,2018-10-30 16:42:26.2460,1540932146.2460709,-0.18335118420090332,0.21325182533976797,0.396526044185168,0.0266571044921875,-0.178619384765625,-1.2035980224609375,36.66520690917969,19.244186401367188,-71.36703491210938,,,,,,,,,,
0,2018-10-30 16:42:25.5930,00:36,60,0,2018-10-30 16:42:26.2630,1540932146.262683,0.08711705926256304,0.14917110950639034,0.35461827495557213,0.0275421142578125,-0.145904541015625,-1.223419189453125,36.66520690917969,19.244186401367188,-71.36703491210938,,,,,,,,,,
0,2018-10-30 16:42:25.5930,00:36,60,0,2018-10-30 16:42:26.2810,1540932146.280565,0.3465872463723292,0.03760942723020801,0.3115837222687637,0.026275634765625,-0.136993408203125,-1.2133026123046875,37.0169677734375,18.941665649414062,-71.35914611816406,,,,,,,,,,
0,2018-10-30 16:42:25.5930,00:36,60,0,2018-10-30 16:42:26.2970,1540932146.2972078,0.48659202172277577,-0.11909629763223452,0.21390829454847252,0.02215576171875,-0.1356201171875,-1.1549072265625,37.02610778808594,18.551422119140625,-71.37318420410156,,,,,,,,,,
0,2018-10-30 16:42:25.5930,00:36,60,0,2018-10-30 16:42:26.3140,1540932146.3137631,0.5013366130979995,-0.26678855378530386,0.05630588334700029,-0.00079345703125,-0.149322509765625,-1.070526123046875,37.07395935058594,17.9193115234375,-71.86248779296875,,,,,,,,,,
0,2018-10-30 16:42:25.5930,00:36,60,0,2018-10-30 16:42:26.3290,1540932146.329349,0.4470129205503452,-0.3608018686906271,-0.1054971318418539,-0.0205841064453125,-0.1829681396484375,-0.992034912109375,36.656585693359375,17.924407958984375,-71.72886657714844,,,,,,,,,,
0,2018-10-30 16:42:25.5930,00:36,60,0,2018-10-30 16:42:26.3460,1540932146.346102,0.3146375690907576,-0.3299851001367752,-0.19109618928307176,-0.0211181640625,-0.21966552734375,-0.926483154296875,36.486572265625,17.88067626953125,-71.5836181640625,,,,,,,,,,
0,2018-10-30 16:42:25.5930,00:36,60,0,2018-10-30 16:42:26.3630,1540932146.362787,0.1144775773537101,-0.18875047699492997,-0.13733069529989805,-0.0032958984375,-0.25750732421875,-0.885498046875,36.40419006347656,17.66351318359375,-71.75233459472656,,,,,,,,,,
0,2018-10-30 16:42:25.5930,00:36,60,0,2018-10-30 16:42:26.3790,1540932146.379282,-0.1091169003954896,-0.03389831225118259,0.08351167177881376,0.0361785888671875,-0.2771453857421875,-0.8890228271484375,36.40419006347656,17.66351318359375,-71.75233459472656,,,,,,,,,,
0,2018-10-30 16:42:25.5930,00:36,60,0,2018-10-30 16:42:26.3960,1540932146.395993,-0.2712528107206037,0.06800115527408326,0.41564354607030185,0.0832061767578125,-0.26019287109375,-0.9229736328125,36.61418151855469,17.46551513671875,-72.21662902832031,,,,,,,,,,
0,2018-10-30 16:42:25.5930,00:36,60,0,2018-10-30 16:42:26.4130,1540932146.412905,-0.294520316532408,0.12231126570017818,0.6845024412870333,0.0992889404296875,-0.20477294921875,-0.9615020751953125,36.8641357421875,17.41693115234375,-71.89259338378906,,,,,,,,,,
0,2018-10-30 16:42:25.5930,00:36,60,0,2018-10-30 16:42:26.4300,1540932146.429631,-0.19628722287985423,0.16208397868385754,0.7809054106384846,0.079925537109375,-0.126068115234375,-0.9828338623046875,37.084381103515625,17.529190063476562,-71.72032165527344,,,,,,,,,,
0,2018-10-30 16:42:25.5930,00:36,60,0,2018-10-30 16:42:26.4460,1540932146.446268,-0.015958992832299835,0.14340722995913185,0.6908865710521712,0.0409698486328125,-0.0647735595703125,-0.99066162109375,37.38313293457031,17.858245849609375,-71.84793090820312,,,,,,,,,,
0,2018-10-30 16:42:25.5930,00:36,60,0,2018-10-30 16:42:26.4630,1540932146.462867,0.19784783527864067,0.0676022137427894,0.47121492958865824,0.0013427734375,-0.041534423828125,-0.9992523193359375,37.54808044433594,17.592208862304688,-72.00497436523438,,,,,,,,,,
0,2018-10-30 16:42:25.5930,00:36,60,0,2018-10-30 16:42:26.4790,1540932146.479444,0.36661022302808993,0.018265290336308457,0.23231127031313806,-0.01806640625,-0.0458221435546875,-0.9830474853515625,37.54808044433594,17.592208862304688,-72.00497436523438,,,,,,,,,,
0,2018-10-30 16:42:25.5930,00:36,60,0,2018-10-30 16:42:26.4960,1540932146.49612,0.44028657458513204,-0.02838130773697444,0.08981137933739619,-0.019287109375,-0.0871734619140625,-0.96337890625,37.59849548339844,16.960372924804688,-72.181884765625,,,,,,,,,,
0,2018-10-30 16:42:25.5930,00:36,60,0,2018-10-30 16:42:26.5130,1540932146.5127559,0.38122245529713666,-0.03635587730510771,0.06197335646279792,-0.0045318603515625,-0.1430816650390625,-0.93621826171875,37.60765075683594,16.570114135742188,-72.19590759277344,,,,,,,,,,
0,2018-10-30 16:42:25.5930,00:36,60,0,2018-10-30 16:42:26.5310,1540932146.530583,0.21582124315947643,-0.006894924062215147,0.12415949949669317,0.017059326171875,-0.1912841796875,-0.9054107666015625,37.774566650390625,16.304290771484375,-72.11868286132812,,,,,,,,,,
0,2018-10-30 16:42:25.5930,00:36,60,0,2018-10-30 16:42:26.5460,1540932146.546205,-0.009509881936563951,0.05852163337394622,0.2645773311322111,0.0707855224609375,-0.2398834228515625,-0.9041900634765625,37.84992980957031,16.211532592773438,-72.19610595703125,,,,,,,,,,
0,2018-10-30 16:42:25.5930,00:36,60,0,2018-10-30 16:42:26.5630,1540932146.5628672,-0.24917360738719277,0.18756084293599157,0.4875334491681188,0.0707855224609375,-0.2398834228515625,-0.9041900634765625,38.18031311035156,16.379928588867188,-71.93766784667969,,,,,,,,,,
0,2018-10-30 16:42:25.5930,00:36,60,0,2018-10-30 16:42:26.5790,1540932146.579407,-0.42164471327068637,0.17961663340428521,0.7242256194744372,0.094146728515625,-0.231719970703125,-0.961029052734375,38.18031311035156,16.379928588867188,-71.93766784667969,,,,,,,,,,
0,2018-10-30 16:42:25.5930,00:36,60,0,2018-10-30 16:42:26.5960,1540932146.596292,-0.4748128602213553,0.053060288926520725,0.8536565800328332,0.062744140625,-0.141204833984375,-1.0424957275390625,38.26904296875,16.906982421875,-71.60098266601562,,,,,,,,,,
0,2018-10-30 16:42:25.5930,00:36,60,0,2018-10-30 16:42:26.6130,1540932146.612815,-0.41027381436437504,-0.1529064592513355,0.8137650900645363,0.062744140625,-0.141204833984375,-1.0424957275390625,38.4468994140625,16.560333251953125,-71.91644287109375,,,,,,,,,,
0,2018-10-30 16:42:25.5930,00:36,60,0,2018-10-30 16:42:26.6290,1540932146.6294909,-0.2898222340533992,-0.27986547368591996,0.6272495378564008,0.01373291015625,-0.10430908203125,-1.0164031982421875,38.66780090332031,16.672683715820312,-71.66607666015625,,,,,,,,,,
0,2018-10-30 16:42:25.5930,00:36,60,0,2018-10-30 16:42:26.6460,1540932146.6463609,-0.1520933961705343,-0.26405508524244653,0.4002131907143827,-0.07086181640625,-0.1206817626953125,-0.92626953125,38.60467529296875,16.684768676757812,-71.82516479492188,,,,,,,,,,
0,2018-10-30 16:42:25.5930,00:36,60,0,2018-10-30 16:42:26.6630,1540932146.662867,-0.007312241405030564,-0.16409679583573944,0.21075910655945382,-0.07086181640625,-0.1206817626953125,-0.92626953125,38.57318115234375,16.536163330078125,-71.59823608398438,,,,,,,,,,
0,2018-10-30 16:42:25.5930,00:36,60,0,2018-10-30 16:42:26.6800,1540932146.67959,0.1088580411375339,0.04619465963629645,0.08784143907906458,-0.0521240234375,-0.1932220458984375,-0.8841094970703125,38.74383544921875,16.579971313476562,-71.66539001464844,,,,,,,,,,
0,2018-10-30 16:42:25.5930,00:36,60,0,2018-10-30 16:42:26.6990,1540932146.698797,0.18936593352284728,0.3060597935357213,0.09563864211859859,-0.020263671875,-0.23193359375,-0.8946380615234375,38.74383544921875,16.579971313476562,-71.66539001464844,,,,,,,,,,
0,2018-10-30 16:42:25.5930,00:36,60,0,2018-10-30 16:42:26.7140,1540932146.713597,0.18936593352284728,0.3060597935357213,0.09563864211859859,-0.020263671875,-0.23193359375,-0.8946380615234375,38.882354736328125,16.475112915039062,-71.58369445800781,,,,,,,,,,
0,2018-10-30 16:42:25.5930,00:36,60,0,2018-10-30 16:42:26.7300,1540932146.729731,0.14528316063098368,0.33979432137986404,0.15030481718243707,0.017425537109375,-0.2677001953125,-0.92877197265625,39.06346130371094,16.128799438476562,-71.50868225097656,,,,,,,,,,
0,2018-10-30 16:42:25.5930,00:36,60,0,2018-10-30 16:42:26.7460,1540932146.746252,0.037651238859322256,0.3598037159140654,0.2735045134222657,0.017578125,-0.2649383544921875,-0.94744873046875,39.44866943359375,15.97503662109375,-71.49345397949219,,,,,,,,,,
0,2018-10-30 16:42:25.5930,00:36,60,0,2018-10-30 16:42:26.7630,1540932146.7629662,0.037651238859322256,0.3598037159140654,0.2735045134222657,0.017578125,-0.2649383544921875,-0.94744873046875,39.758514404296875,15.9140625,-71.40080261230469,,,,,,,,,,
0,2018-10-30 16:42:25.5930,00:36,60,0,2018-10-30 16:42:26.7800,1540932146.779584,-0.010550645290566919,0.4001316979850263,0.31211688711899754,-0.0045928955078125,-0.2333221435546875,-0.995330810546875,40.115966796875,15.921340942382812,-71.30302429199219,,,,,,,,,,
0,2018-10-30 16:42:25.5930,00:36,60,0,2018-10-30 16:42:26.7960,1540932146.796237,0.006251770658961012,0.38709392655243435,0.28639607731101224,-0.008453369140625,-0.2148590087890625,-1.029052734375,40.115966796875,15.921340942382812,-71.30302429199219,,,,,,,,,,
0,2018-10-30 16:42:25.5930,00:36,60,0,2018-10-30 16:42:26.8130,1540932146.812914,0.006251770658961012,0.38709392655243435,0.28639607731101224,-0.014495849609375,-0.1962890625,-1.0676422119140625,40.37815856933594,15.792068481445312,-71.21553039550781,,,,,,,,,,
0,2018-10-30 16:42:25.5930,00:36,60,0,2018-10-30 16:42:26.8300,1540932146.8296828,0.22158325849397187,0.2698346774401365,0.15127101202591783,-0.024749755859375,-0.17681884765625,-1.1019744873046875,41.02049255371094,15.19927978515625,-71.12458801269531,,,,,,,,,,
0,2018-10-30 16:42:25.5930,00:36,60,0,2018-10-30 16:42:26.8460,1540932146.846298,0.3151595486644131,0.21531870466177847,0.03552816683831109,-0.036712646484375,-0.1625518798828125,-1.1133270263671875,41.04759216308594,15.038177490234375,-71.28523254394531,,,,,,,,,,
0,2018-10-30 16:42:25.5930,00:36,60,0,2018-10-30 16:42:26.8630,1540932146.862946,0.3151595486644131,0.21531870466177847,0.03552816683831109,-0.035736083984375,-0.16064453125,-1.1022186279296875,41.36656188964844,14.586944580078125,-71.20661926269531,,,,,,,,,,
0,2018-10-30 16:42:25.5930,00:36,60,0,2018-10-30 16:42:26.8800,1540932146.879667,0.26579466206648633,0.19699615636203333,-0.13260784542275153,-0.0245208740234375,-0.1641082763671875,-1.09954833984375,41.53215026855469,14.32098388671875,-71.28558349609375,,,,,,,,,,
0,2018-10-30 16:42:25.5930,00:36,60,0,2018-10-30 16:42:26.8960,1540932146.896449,0.14406503074838142,0.25234356803271407,-0.15714008643623445,-0.0117645263671875,-0.165191650390625,-1.09771728515625,41.53215026855469,14.32098388671875,-71.28558349609375,,,,,,,,,,
0,2018-10-30 16:42:25.5930,00:36,60,0,2018-10-30 16:42:26.9140,1540932146.914195,0.14406503074838142,0.25234356803271407,-0.15714008643623445,0.0066375732421875,-0.1694793701171875,-1.1210174560546875,41.582427978515625,14.389511108398438,-70.96804809570312,,,,,,,,,,
0,2018-10-30 16:42:25.5930,00:36,60,0,2018-10-30 16:42:26.9320,1540932146.9316459,-0.17038505180163455,0.12439279240818411,-0.13366325616274993,0.0078277587890625,-0.17315673828125,-1.176513671875,41.78080749511719,14.272262573242188,-71.11775207519531,,,,,,,,,,
0,2018-10-30 16:42:25.5930,00:36,60,0,2018-10-30 16:42:26.9480,1540932146.94755,-0.2831813755591776,-0.10468886245101486,-0.1885326304177615,-0.0050201416015625,-0.166595458984375,-1.2259979248046875,41.802001953125,14.501724243164062,-70.87387084960938,,,,,,,,,,
0,2018-10-30 16:42:25.5930,00:36,60,0,2018-10-30 16:42:26.9640,1540932146.963959,-0.3390566257579121,-0.34284550504076783,-0.2744818935423248,-0.0017852783203125,-0.1380157470703125,-1.23004150390625,41.80525207519531,14.502044677734375,-70.4833984375,,,,,,,,,,
0,2018-10-30 16:42:25.5930,00:36,60,0,2018-10-30 16:42:26.9800,1540932146.980016,-0.28736280478671106,-0.4759255289247904,-0.38816984363282636,-0.02337646484375,-0.1187591552734375,-1.21832275390625,41.17451477050781,15.014083862304688,-70.88893127441406,,,,,,,,,,
0,2018-10-30 16:42:25.5930,00:36,60,0,2018-10-30 16:42:26.9960,1540932146.99647,-0.15415974286032677,-0.4563707359886656,-0.4588546663373825,-0.0363616943359375,-0.0904083251953125,-1.17022705078125,41.04902648925781,14.72906494140625,-70.51608276367188,,,,,,,,,,
0,2018-10-30 16:42:25.5930,00:36,60,0,2018-10-30 16:42:27.0130,1540932147.013056,0.06297976503873887,-0.3684371515358843,-0.5198375931907799,-0.0486297607421875,-0.0661163330078125,-1.1183319091796875,41.04902648925781,14.72906494140625,-70.51608276367188,,,,,,,,,,
0,2018-10-30 16:42:25.5930,00:36,60,0,2018-10-30 16:42:27.0330,1540932147.032967,0.3100348277787736,-0.24394315900627714,-0.5989872734201529,-0.0701751708984375,-0.05438232421875,-1.059326171875,40.77265930175781,14.938812255859375,-70.60134887695312,,,,,,,,,,
0,2018-10-30 16:42:25.5930,00:36,60,0,2018-10-30 16:42:27.0470,1540932147.047445,0.48868047264961595,-0.10156390922791587,-0.6588229104759442,-0.078033447265625,-0.05859375,-0.988250732421875,40.609161376953125,14.50457763671875,-70.78253173828125,,,,,,,,,,
0,2018-10-30 16:42:25.5930,00:36,60,0,2018-10-30 16:42:27.0630,1540932147.062581,0.5534368324515466,0.05037715412826589,-0.6725722785518053,-0.072235107421875,-0.076995849609375,-0.92266845703125,40.294952392578125,14.255874633789062,-70.80888366699219,,,,,,,,,,
0,2018-10-30 16:42:25.5930,00:36,60,0,2018-10-30 16:42:27.0820,1540932147.081569,0.5104797777524596,0.20304792362312937,-0.6102636301077664,-0.06201171875,-0.1086273193359375,-0.8775634765625,40.571990966796875,14.046188354492188,-70.64549255371094,,,,,,,,,,
0,2018-10-30 16:42:25.5930,00:36,60,0,2018-10-30 16:42:27.0980,1540932147.09798,0.3782626180616226,0.2979286300954914,-0.48803652029803474,-0.0482635498046875,-0.1372222900390625,-0.865936279296875,40.7349853515625,13.77996826171875,-71.03684997558594,,,,,,,,,,
0,2018-10-30 16:42:25.5930,00:36,60,0,2018-10-30 16:42:27.1130,1540932147.1133928,0.1939878495946798,0.35539698325831126,-0.35192182435186686,-0.0394287109375,-0.154052734375,-0.8722991943359375,40.7349853515625,13.77996826171875,-71.03684997558594,,,,,,,,,,
0,2018-10-30 16:42:25.5930,00:36,60,0,2018-10-30 16:42:27.1300,1540932147.1302729,-0.04273015337421237,0.4436237817471103,-0.20826052882474147,-0.023529052734375,-0.15087890625,-0.888946533203125,41.09376525878906,13.787368774414062,-70.78286743164062,,,,,,,,,,
0,2018-10-30 16:42:25.5930,00:36,60,0,2018-10-30 16:42:27.1470,1540932147.1466088,-0.33527467069389055,0.6598064158665106,-0.011955729081692724,0.0269317626953125,-0.1253814697265625,-0.8976593017578125,41.41712951660156,13.645843505859375,-70.77055358886719,,,,,,,,,,
0,2018-10-30 16:42:25.5930,00:36,60,0,2018-10-30 16:42:27.1630,1540932147.162819,-0.5574307751383385,0.7475378663925548,0.2205829751885381,0.076629638671875,-0.0968475341796875,-0.959747314453125,41.93431091308594,13.777725219726562,-70.34721374511719,,,,,,,,,,
0,2018-10-30 16:42:25.5930,00:36,60,0,2018-10-30 16:42:27.1820,1540932147.181613,-0.625039646783853,0.5549620248078351,0.39491216856458,0.1111907958984375,-0.062652587890625,-1.0591888427734375,42.48170471191406,14.058090209960938,-70.30699157714844,,,,,,,,,,
0,2018-10-30 16:42:25.5930,00:36,60,0,2018-10-30 16:42:27.1980,1540932147.1982799,-0.5208727639064937,0.1981855241048627,0.3762423440586885,0.0684814453125,0.00335693359375,-1.107147216796875,42.52281188964844,14.516876220703125,-69.9754638671875,,,,,,,,,,
0,2018-10-30 16:42:25.5930,00:36,60,0,2018-10-30 16:42:27.2150,1540932147.214939,-0.29745698426643835,-0.1978124152361426,0.1422522169943645,0.0684814453125,0.00335693359375,-1.107147216796875,42.2451171875,14.726486206054688,-70.21693420410156,,,,,,,,,,
0,2018-10-30 16:42:25.5930,00:36,60,0,2018-10-30 16:42:27.2310,1540932147.231322,-0.052380383900223496,-0.4529120886809797,-0.21578928522639548,0.010711669921875,0.0070648193359375,-1.0543975830078125,42.2451171875,14.726486206054688,-70.21693420410156,,,,,,,,,,
0,2018-10-30 16:42:25.5930,00:36,60,0,2018-10-30 16:42:27.2480,1540932147.2479892,0.08436255174709408,-0.5515371996459931,-0.49436791947358916,-0.0421600341796875,-0.08831787109375,-0.9142608642578125,42.130584716796875,14.360671997070312,-70.23678588867188,,,,,,,,,,
0,2018-10-30 16:42:25.5930,00:36,60,0,2018-10-30 16:42:27.2650,1540932147.264612,0.10987803183503425,-0.4474677884645307,-0.614182205335709,-0.0421600341796875,-0.08831787109375,-0.9142608642578125,41.68353271484375,14.526657104492188,-70.25491333007812,,,,,,,,,,
0,2018-10-30 16:42:25.5930,00:36,60,0,2018-10-30 16:42:27.2810,1540932147.2814379,0.11485867570570044,-0.25823394773175135,-0.6139499776886541,-0.026947021484375,-0.145172119140625,-0.884429931640625,41.43684387207031,14.575576782226562,-70.18846130371094,,,,,,,,,,
0,2018-10-30 16:42:25.5930,00:36,60,0,2018-10-30 16:42:27.2980,1540932147.297974,0.13738129536060956,-0.09004893330663126,-0.5312915827231017,0.0040130615234375,-0.18988037109375,-0.894195556640625,41.47747802734375,14.333892822265625,-70.429443359375,,,,,,,,,,
0,2018-10-30 16:42:25.5930,00:36,60,0,2018-10-30 16:42:27.3150,1540932147.314542,0.16032469446775122,0.02172127448290428,-0.4069392703634868,0.0338897705078125,-0.222381591796875,-0.91107177734375,41.45039367675781,14.4949951171875,-70.26878356933594,,,,,,,,,,
0,2018-10-30 16:42:25.5930,00:36,60,0,2018-10-30 16:42:27.3310,1540932147.331318,0.16645981867096676,0.02876240608896478,-0.2891372690210308,0.063629150390625,-0.24664306640625,-0.9407958984375,41.45039367675781,14.4949951171875,-70.26878356933594,,,,,,,,,,
0,2018-10-30 16:42:25.5930,00:36,60,0,2018-10-30 16:42:27.3470,1540932147.3471951,0.13690592110603042,-0.06644400498471394,-0.21214554822294907,0.063629150390625,-0.24664306640625,-0.9407958984375,41.436187744140625,14.57550048828125,-70.26655578613281,,,,,,,,,,
0,2018-10-30 16:42:25.5930,00:36,60,0,2018-10-30 16:42:27.3630,1540932147.3632321,0.08830110068321226,-0.18179536549207903,-0.1908589016299457,0.056182861328125,-0.239593505859375,-0.940399169921875,41.27778625488281,14.451019287109375,-70.43594360351562,,,,,,,,,,
0,2018-10-30 16:42:25.5930,00:36,60,0,2018-10-30 16:42:27.3800,1540932147.379864,0.05513861984121857,-0.23442022758037181,-0.2048370352434446,0.0061187744140625,-0.2194671630859375,-0.95062255859375,41.287567138671875,14.060821533203125,-70.37185668945312,,,,,,,,,,
0,2018-10-30 16:42:25.5930,00:36,60,0,2018-10-30 16:42:27.3980,1540932147.397748,0.0907690520653887,-0.2627898174085499,-0.22843956672038085,0.0061187744140625,-0.2194671630859375,-0.95062255859375,40.99324035644531,14.04144287109375,-70.310546875,,,,,,,,,,
0,2018-10-30 16:42:25.5930,00:36,60,0,2018-10-30 16:42:27.4130,1540932147.413305,0.1622496273036605,-0.28831009118645223,-0.23919687331153794,-0.003753662109375,-0.22088623046875,-0.9781646728515625,40.839874267578125,14.226730346679688,-70.46810913085938,,,,,,,,,,
0,2018-10-30 16:42:25.5930,00:36,60,0,2018-10-30 16:42:27.4300,1540932147.430048,0.20547779180171766,-0.2791576054681769,-0.1974323821485883,0.0179901123046875,-0.2368011474609375,-0.9965972900390625,40.839874267578125,14.226730346679688,-70.46810913085938,,,,,,,,,,
0,2018-10-30 16:42:25.5930,00:36,60,0,2018-10-30 16:42:27.4470,1540932147.446599,0.17860489850616412,-0.20033203194346658,-0.09988025878676778,0.0179901123046875,-0.2368011474609375,-0.9965972900390625,40.899749755859375,14.214309692382812,-70.699462890625,,,,,,,,,,
0,2018-10-30 16:42:25.5930,00:36,60,0,2018-10-30 16:42:27.4630,1540932147.463229,0.1568862871843499,-0.12176585030892995,0.050142529636229914,0.05877685546875,-0.212188720703125,-1.0606231689453125,40.91020202636719,13.824203491210938,-70.55732727050781,,,,,,,,,,
0,2018-10-30 16:42:25.5930,00:36,60,0,2018-10-30 16:42:27.4800,1540932147.479937,0.19500677502774413,0.06926802100463396,0.3320056404558183,0.0624237060546875,-0.179901123046875,-1.076904296875,41.04936218261719,13.71942138671875,-70.39753723144531,,,,,,,,,,
0,2018-10-30 16:42:25.5930,00:36,60,0,2018-10-30 16:42:27.4970,1540932147.496654,0.19500677502774413,0.06926802100463396,0.3320056404558183,0.0624237060546875,-0.179901123046875,-1.076904296875,41.152496337890625,13.465621948242188,-70.5574951171875,,,,,,,,,,
0,2018-10-30 16:42:25.5930,00:36,60,0,2018-10-30 16:42:27.5130,1540932147.513356,0.11538598160153613,0.032914806860616326,0.4176489063711315,0.0377960205078125,-0.157745361328125,-1.104736328125,41.35218811035156,13.348480224609375,-70.55099487304688,,,,,,,,,,
0,2018-10-30 16:42:25.5930,00:36,60,0,2018-10-30 16:42:27.5300,1540932147.529985,-0.16478335876476188,-0.3636855395189649,0.4611324680177273,0.0225067138671875,-0.1524505615234375,-1.1248321533203125,41.35218811035156,13.348480224609375,-70.55099487304688,,,,,,,,,,
0,2018-10-30 16:42:25.5930,00:36,60,0,2018-10-30 16:42:27.5470,1540932147.5467281,-0.16478335876476188,-0.3636855395189649,0.4611324680177273,0.0225067138671875,-0.1524505615234375,-1.1248321533203125,41.336700439453125,13.428848266601562,-70.70494079589844,,,,,,,,,,
0,2018-10-30 16:42:25.5930,00:36,60,0,2018-10-30 16:42:27.5630,1540932147.563335,-0.19084425424395027,-0.4530204793373459,0.41391062714898724,-0.019744873046875,-0.10711669921875,-1.1202850341796875,41.16473388671875,13.384918212890625,-70.79399108886719,,,,,,,,,,
0,2018-10-30 16:42:25.5930,00:36,60,0,2018-10-30 16:42:27.5800,1540932147.580096,0.1689618585150962,-0.3988208900964893,0.06157734440870314,-0.03448486328125,-0.1027679443359375,-1.087982177734375,41.041046142578125,13.409332275390625,-70.7998046875,,,,,,,,,,
0,2018-10-30 16:42:25.5930,00:36,60,0,2018-10-30 16:42:27.5970,1540932147.59672,0.1689618585150962,-0.3988208900964893,0.06157734440870314,-0.0302886962890625,-0.1217041015625,-1.026092529296875,40.711334228515625,13.241012573242188,-70.98013305664062,,,,,,,,,,
0,2018-10-30 16:42:25.5930,00:36,60,0,2018-10-30 16:42:27.6150,1540932147.6145039,0.271799557692397,-0.1590309308101907,-0.10306433418606652,-0.015472412109375,-0.159942626953125,-0.973114013671875,40.69779968261719,13.321563720703125,-70.89982604980469,,,,,,,,,,
0,2018-10-30 16:42:25.5930,00:36,60,0,2018-10-30 16:42:27.6300,1540932147.630043,0.13894110881106897,-0.027262247446923144,-0.0075631111797160285,-0.002227783203125,-0.19586181640625,-0.9325408935546875,40.84918212890625,13.136093139648438,-70.97654724121094,,,,,,,,,,
0,2018-10-30 16:42:25.5930,00:36,60,0,2018-10-30 16:42:27.6470,1540932147.646801,0.13894110881106897,-0.027262247446923144,-0.0075631111797160285,0.0064697265625,-0.210723876953125,-0.921112060546875,40.84918212890625,13.136093139648438,-70.97654724121094,,,,,,,,,,
0,2018-10-30 16:42:25.5930,00:36,60,0,2018-10-30 16:42:27.6630,1540932147.6634688,-0.18204117526069336,0.2253897146400221,0.3333598578701236,0.013580322265625,-0.202392578125,-0.921234130859375,40.86534118652344,13.055770874023438,-70.74447631835938,,,,,,,,,,
0,2018-10-30 16:42:25.5930,00:36,60,0,2018-10-30 16:42:27.6800,1540932147.68018,-0.34991513247049216,0.34221486849463706,0.46311865355870835,0.013031005859375,-0.1818084716796875,-0.9395294189453125,41.11334228515625,13.007003784179688,-70.65473937988281,,,,,,,,,,
0,2018-10-30 16:42:25.5930,00:36,60,0,2018-10-30 16:42:27.6970,1540932147.6967402,-0.34991513247049216,0.34221486849463706,0.46311865355870835,0.0130767822265625,-0.1662139892578125,-0.9971771240234375,41.62922668457031,13.138778686523438,-70.38760375976562,,,,,,,,,,
0,2018-10-30 16:42:25.5930,00:36,60,0,2018-10-30 16:42:27.7150,1540932147.715384,-0.6224001878274755,0.44262269949334954,0.6217956502600276,0.003326416015625,-0.144439697265625,-1.046295166015625,42.17791748046875,13.419281005859375,-70.19120788574219,,,,,,,,,,
0,2018-10-30 16:42:25.5930,00:36,60,0,2018-10-30 16:42:27.7310,1540932147.7310019,-0.6368949746924498,0.47512871112663874,0.6421856105140012,0.001678466796875,-0.1032257080078125,-1.085418701171875,42.45085144042969,13.909561157226562,-70.00198364257812,,,,,,,,,,
0,2018-10-30 16:42:25.5930,00:36,60,0,2018-10-30 16:42:27.7470,1540932147.746783,-0.552373165912169,0.4767548372882411,0.5736321156298355,0.002899169921875,-0.058563232421875,-1.1095123291015625,42.45085144042969,13.909561157226562,-70.00198364257812,,,,,,,,,,
0,2018-10-30 16:42:25.5930,00:36,60,0,2018-10-30 16:42:27.7630,1540932147.763479,-0.3958964729034733,0.3752801439568429,0.41926517883670056,0.0060272216796875,-0.0284881591796875,-1.1115875244140625,43.03578186035156,13.638687133789062,-69.98025512695312,,,,,,,,,,
0,2018-10-30 16:42:25.5930,00:36,60,0,2018-10-30 16:42:27.7800,1540932147.780181,-0.3958964729034733,0.3752801439568429,0.41926517883670056,0.0087890625,-0.02532958984375,-1.0972747802734375,43.33514404296875,13.967819213867188,-70.02976989746094,,,,,,,,,,
0,2018-10-30 16:42:25.5930,00:36,60,0,2018-10-30 16:42:27.7970,1540932147.796839,-0.0007949535853886526,-0.0832677262229625,-0.002244245850609774,0.0012359619140625,-0.05126953125,-1.05401611328125,43.293212890625,14.209365844726562,-69.94499206542969,,,,,,,,,,
0,2018-10-30 16:42:25.5930,00:36,60,0,2018-10-30 16:42:27.8130,1540932147.8133779,0.1351234673884404,-0.23438480753787375,-0.13525023385632817,-0.005096435546875,-0.0937347412109375,-0.98980712890625,43.24754333496094,14.141281127929688,-69.71583557128906,,,,,,,,,,
0,2018-10-30 16:42:25.5930,00:36,60,0,2018-10-30 16:42:27.8310,1540932147.831332,0.22642328745908188,-0.28598967892866617,-0.16210741450145025,-0.00689697265625,-0.1395111083984375,-0.923675537109375,43.16645812988281,13.924224853515625,-69.72831726074219,,,,,,,,,,
0,2018-10-30 16:42:25.5930,00:36,60,0,2018-10-30 16:42:27.8470,1540932147.846829,0.30458706545290753,-0.2630987440949991,-0.12354697244597494,-0.0081024169921875,-0.171844482421875,-0.8797149658203125,43.16645812988281,13.924224853515625,-69.72831726074219,,,,,,,,,,
0,2018-10-30 16:42:25.5930,00:36,60,0,2018-10-30 16:42:27.8630,1540932147.863467,0.3874715627950076,-0.1883273006977164,-0.0870653939374155,-0.011322021484375,-0.1885833740234375,-0.8515472412109375,43.01438903808594,14.109634399414062,-69.72970581054688,,,,,,,,,,
0,2018-10-30 16:42:25.5930,00:36,60,0,2018-10-30 16:42:27.8800,1540932147.880064,0.4476717866040308,-0.06352411516555106,-0.06550870280987811,-0.01580810546875,-0.200408935546875,-0.82879638671875,43.12010192871094,13.856063842773438,-69.5772705078125,,,,,,,,,,
0,2018-10-30 16:42:25.5930,00:36,60,0,2018-10-30 16:42:27.8970,1540932147.8968182,0.4769939891541302,0.029144303389282145,-0.04826766422881413,-0.0115203857421875,-0.2166900634765625,-0.83087158203125,43.154388427734375,13.304519653320312,-69.98625183105469,,,,,,,,,,
0,2018-10-30 16:42:25.5930,00:36,60,0,2018-10-30 16:42:27.9140,1540932147.913562,0.47468662638568554,0.11999165239071917,-0.04065901299445775,-0.005645751953125,-0.233642578125,-0.85650634765625,43.37806701660156,12.716705322265625,-69.91787719726562,,,,,,,,,,
0,2018-10-30 16:42:25.5930,00:36,60,0,2018-10-30 16:42:27.9300,1540932147.9303222,0.43606413267681143,0.16570427986971129,-0.019176091429115555,0.00048828125,-0.2462615966796875,-0.8944091796875,43.381195068359375,13.026290893554688,-70.140380859375,,,,,,,,,,
0,2018-10-30 16:42:25.5930,00:36,60,0,2018-10-30 16:42:27.9470,1540932147.946918,0.38199850043878575,0.14443680803655648,0.019361713757094078,0.0164031982421875,-0.2513275146484375,-0.9467010498046875,43.484954833984375,12.77252197265625,-70.22224426269531,,,,,,,,,,
0,2018-10-30 16:42:25.5930,00:36,60,0,2018-10-30 16:42:27.9640,1540932147.96355,0.31608180134990754,0.10475863727157493,0.0921472379295047,0.030914306640625,-0.250396728515625,-0.9939422607421875,43.484954833984375,12.77252197265625,-70.22224426269531,,,,,,,,,,
0,2018-10-30 16:42:25.5930,00:36,60,0,2018-10-30 16:42:27.9800,1540932147.980211,0.2654282111004914,0.011857991069686815,0.18413894725134877,0.034881591796875,-0.240081787109375,-1.0544586181640625,43.974578857421875,12.365066528320312,-70.21076965332031,,,,,,,,,,
0,2018-10-30 16:42:25.5930,00:36,60,0,2018-10-30 16:42:27.9970,1540932147.9968739,0.2579732242610326,-0.09532971543214938,0.22898471579552007,0.0266265869140625,-0.2117919921875,-1.1082000732421875,43.87864685058594,12.228439331054688,-70.29913330078125,,,,,,,,,,
0,2018-10-30 16:42:25.5930,00:36,60,0,2018-10-30 16:42:28.0140,1540932148.013629,0.2755439621850484,-0.14184049228983825,0.18715950455971664,0.0008544921875,-0.1739501953125,-1.132476806640625,44.073944091796875,11.8016357421875,-70.22633361816406,,,,,,,,,,
0,2018-10-30 16:42:25.5930,00:36,60,0,2018-10-30 16:42:28.0300,1540932148.030323,0.28630073614398743,-0.14794072908277375,0.06400028836845723,-0.0323944091796875,-0.1403961181640625,-1.132171630859375,44.15504455566406,12.0186767578125,-70.21385192871094,,,,,,,,,,
0,2018-10-30 16:42:25.5930,00:36,60,0,2018-10-30 16:42:28.0480,1540932148.048037,0.2973675020538117,-0.12691374069605313,-0.08161363686991428,-0.047515869140625,-0.1287841796875,-1.13128662109375,44.16925048828125,11.938186645507812,-70.21607971191406,,,,,,,,,,
0,2018-10-30 16:42:25.5930,00:36,60,0,2018-10-30 16:42:28.0640,1540932148.063573,0.304199309198192,-0.10375142974730696,-0.2100901204936259,-0.0578765869140625,-0.134857177734375,-1.1396484375,44.16925048828125,11.938186645507812,-70.21607971191406,,,,,,,,,,
0,2018-10-30 16:42:25.5930,00:36,60,0,2018-10-30 16:42:28.0800,1540932148.080142,0.26825728712648256,-0.13652935012789322,-0.31185376680329774,-0.0605010986328125,-0.1580047607421875,-1.1490478515625,44.08943176269531,11.721282958984375,-70.07237243652344,,,,,,,,,,
0,2018-10-30 16:42:25.5930,00:36,60,0,2018-10-30 16:42:28.0970,1540932148.0969,0.15041720258043842,-0.22932693199559526,-0.35477433619545073,-0.03961181640625,-0.1777191162109375,-1.155609130859375,44.01277160644531,11.813919067382812,-70.15115356445312,,,,,,,,,,
0,2018-10-30 16:42:25.5930,00:36,60,0,2018-10-30 16:42:28.1140,1540932148.113883,-0.021010743104071142,-0.2872642678263781,-0.3312455742807097,-0.01202392578125,-0.1816864013671875,-1.1085205078125,43.71711730957031,11.794403076171875,-70.24601745605469,,,,,,,,,,
0,2018-10-30 16:42:25.5930,00:36,60,0,2018-10-30 16:42:28.1300,1540932148.1302938,-0.18148377564453977,-0.28185165922690103,-0.21768891803194898,-0.01202392578125,-0.1816864013671875,-1.1085205078125,43.70487976074219,11.875091552734375,-70.00950622558594,,,,,,,,,,
0,2018-10-30 16:42:25.5930,00:36,60,0,2018-10-30 16:42:28.1470,1540932148.14707,-0.2637922312428557,-0.26205105652216193,-0.10306246997330347,-0.0259552001953125,-0.1531219482421875,-1.0869293212890625,43.646148681640625,12.196868896484375,-70.23489379882812,,,,,,,,,,
0,2018-10-30 16:42:25.5930,00:36,60,0,2018-10-30 16:42:28.1640,1540932148.163815,-0.2513677858093091,-0.27533383877504114,-0.05703479053735498,-0.070770263671875,-0.054168701171875,-1.047637939453125,43.646148681640625,12.196868896484375,-70.23489379882812,,,,,,,,,,
0,2018-10-30 16:42:25.5930,00:36,60,0,2018-10-30 16:42:28.1800,1540932148.180437,-0.1881973384365205,-0.2941733066423707,-0.09562426104871215,-0.070770263671875,-0.054168701171875,-1.047637939453125,43.50830078125,12.301773071289062,-70.23849487304688,,,,,,,,,,
0,2018-10-30 16:42:25.5930,00:36,60,0,2018-10-30 16:42:28.1970,1540932148.197023,-0.10175778735527365,-0.32373519369057724,-0.21347632981966166,-0.103057861328125,-0.024566650390625,-1.0144500732421875,43.49604797363281,12.382461547851562,-70.00199890136719,,,,,,,,,,
0,2018-10-30 16:42:25.5930,00:36,60,0,2018-10-30 16:42:28.2140,1540932148.2136369,-0.0173526250307383,-0.35952301873517106,-0.3923747086779525,-0.156097412109375,0.0010986328125,-0.9510650634765625,43.22096252441406,12.59234619140625,-69.93106079101562,,,,,,,,,,
0,2018-10-30 16:42:25.5930,00:36,60,0,2018-10-30 16:42:28.2300,1540932148.230434,0.04965517115674541,-0.353807076087534,-0.6301150991893261,-0.156097412109375,0.0010986328125,-0.9510650634765625,42.84930419921875,12.665542602539062,-70.02662658691406,,,,,,,,,,
0,2018-10-30 16:42:25.5930,00:36,60,0,2018-10-30 16:42:28.2470,1540932148.247006,0.11794101835135815,-0.32431656175654155,-0.865684747096176,-0.1247406005859375,-0.03948974609375,-0.9339752197265625,42.661834716796875,12.701980590820312,-70.26963806152344,,,,,,,,,,
0,2018-10-30 16:42:25.5930,00:36,60,0,2018-10-30 16:42:28.2650,1540932148.265095,0.24373809560234105,-0.3387538243419701,-1.0734800216784808,-0.0832977294921875,-0.0852203369140625,-0.9286956787109375,42.29083251953125,12.775253295898438,-70.28709411621094,,,,,,,,,,
0,2018-10-30 16:42:25.5930,00:36,60,0,2018-10-30 16:42:28.2810,1540932148.280628,0.24373809560234105,-0.3387538243419701,-1.0734800216784808,-0.0832977294921875,-0.0852203369140625,-0.9286956787109375,42.29083251953125,12.775253295898438,-70.28709411621094,,,,,,,,,,
0,2018-10-30 16:42:25.5930,00:36,60,0,2018-10-30 16:42:28.2970,1540932148.297163,0.23341035689501377,-0.3063777749698768,-1.030603128128205,-0.0450439453125,-0.19036865234375,-0.8824310302734375,42.1195068359375,12.73138427734375,-70.29804992675781,,,,,,,,,,
0,2018-10-30 16:42:25.5930,00:36,60,0,2018-10-30 16:42:28.3140,1540932148.31386,-0.051900748587900225,-0.06288815229724014,-0.6479364405719183,-0.0353240966796875,-0.23223876953125,-0.8648681640625,41.73429870605469,12.885147094726562,-70.31327819824219,,,,,,,,,,
0,2018-10-30 16:42:25.5930,00:36,60,0,2018-10-30 16:42:28.3300,1540932148.330326,-0.051900748587900225,-0.06288815229724014,-0.6479364405719183,-0.0353240966796875,-0.23223876953125,-0.8648681640625,41.858642578125,12.860794067382812,-70.22935485839844,,,,,,,,,,
0,2018-10-30 16:42:25.5930,00:36,60,0,2018-10-30 16:42:28.3470,1540932148.347023,-0.24862073514489233,0.04715872395090513,-0.37682531002130687,-0.0102081298828125,-0.2692413330078125,-0.899444580078125,41.833343505859375,13.33135986328125,-70.44740295410156,,,,,,,,,,
0,2018-10-30 16:42:25.5930,00:36,60,0,2018-10-30 16:42:28.3640,1540932148.3639112,-0.45285456440143396,0.14853488032197043,-0.08323496934155453,-0.0102081298828125,-0.2692413330078125,-0.899444580078125,42.01295471191406,13.685287475585938,-70.03414916992188,,,,,,,,,,
0,2018-10-30 16:42:25.5930,00:36,60,0,2018-10-30 16:42:28.3810,1540932148.381052,-0.6290221378779576,0.2064029739644112,0.20386977513552781,-0.0079345703125,-0.245330810546875,-0.9707794189453125,42.01295471191406,13.685287475585938,-70.03414916992188,,,,,,,,,,
0,2018-10-30 16:42:25.5930,00:36,60,0,2018-10-30 16:42:28.3970,1540932148.397145,-0.7424219339385126,0.2255809296062898,0.5487382173403198,-0.028411865234375,-0.1995086669921875,-0.9962158203125,42.42181396484375,14.07049560546875,-70.07562255859375,,,,,,,,,,
0,2018-10-30 16:42:25.5930,00:36,60,0,2018-10-30 16:42:28.4140,1540932148.413738,-0.7424219339385126,0.2255809296062898,0.5487382173403198,-0.028411865234375,-0.1995086669921875,-0.9962158203125,42.67681884765625,14.331680297851562,-69.73979187011719,,,,,,,,,,
0,2018-10-30 16:42:25.5930,00:36,60,0,2018-10-30 16:42:28.4310,1540932148.430578,-0.6076838259598066,0.1792499161221813,0.45120020873227673,-0.0777587890625,-0.1233978271484375,-0.99676513671875,42.555084228515625,14.356277465820312,-69.51130676269531,,,,,,,,,,
0,2018-10-30 16:42:25.5930,00:36,60,0,2018-10-30 16:42:28.4470,1540932148.447248,-0.1091403362130823,0.13885322449509635,-0.1101012047343829,-0.0939178466796875,-0.1103363037109375,-0.9688873291015625,42.90277099609375,14.753753662109375,-69.47760009765625,,,,,,,,,,
0,2018-10-30 16:42:25.5930,00:36,60,0,2018-10-30 16:42:28.4640,1540932148.463862,-0.1091403362130823,0.13885322449509635,-0.1101012047343829,-0.0939178466796875,-0.1103363037109375,-0.9688873291015625,43.00849914550781,14.50018310546875,-69.32518005371094,,,,,,,,,,
0,2018-10-30 16:42:25.5930,00:36,60,0,2018-10-30 16:42:28.4810,1540932148.480547,0.14182770911660586,0.18941546831912276,-0.37353124606898785,-0.0919189453125,-0.1829071044921875,-0.92218017578125,43.00849914550781,14.50018310546875,-69.32518005371094,,,,,,,,,,
0,2018-10-30 16:42:25.5930,00:36,60,0,2018-10-30 16:42:28.4970,1540932148.497202,0.380292479444481,0.43678558301611387,-0.3250947374270627,-0.04632568359375,-0.2310333251953125,-0.9343414306640625,43.22679138183594,14.612258911132812,-69.38717651367188,,,,,,,,,,
0,2018-10-30 16:42:25.5930,00:36,60,0,2018-10-30 16:42:28.5140,1540932148.5137858,0.380292479444481,0.43678558301611387,-0.3250947374270627,0.001708984375,-0.2489776611328125,-0.971466064453125,43.53727722167969,14.551345825195312,-69.21644592285156,,,,,,,,,,
0,2018-10-30 16:42:25.5930,00:36,60,0,2018-10-30 16:42:28.5310,1540932148.5305161,0.49077318463420017,0.3824112904077481,0.02391252342782148,0.026458740234375,-0.240631103515625,-1.0208587646484375,43.610198974609375,14.149078369140625,-68.99327087402344,,,,,,,,,,
0,2018-10-30 16:42:25.5930,00:36,60,0,2018-10-30 16:42:28.5470,1540932148.547286,0.578520880442894,0.3131363451842799,0.09662454435414591,0.03570556640625,-0.2143402099609375,-1.0579071044921875,44.08123779296875,13.512435913085938,-68.91329956054688,,,,,,,,,,
0,2018-10-30 16:42:25.5930,00:36,60,0,2018-10-30 16:42:28.5640,1540932148.563868,0.578520880442894,0.3131363451842799,0.09662454435414591,0.0513458251953125,-0.1817169189453125,-1.04620361328125,44.374908447265625,13.531723022460938,-69.05271911621094,,,,,,,,,,
0,2018-10-30 16:42:25.5930,00:36,60,0,2018-10-30 16:42:28.5810,1540932148.580562,0.5738547558969661,0.3897397770954281,0.15561755724103615,0.077850341796875,-0.14593505859375,-1.027984619140625,44.556671142578125,13.18548583984375,-68.89961242675781,,,,,,,,,,
0,2018-10-30 16:42:25.5930,00:36,60,0,2018-10-30 16:42:28.5980,1540932148.598345,0.4824279030423279,0.4283622708043022,0.18352961599393863,0.1074981689453125,-0.1149139404296875,-1.0483551025390625,44.556671142578125,13.18548583984375,-68.89961242675781,,,,,,,,,,
0,2018-10-30 16:42:25.5930,00:36,60,0,2018-10-30 16:42:28.6140,1540932148.613848,0.4824279030423279,0.4283622708043022,0.18352961599393863,0.1178741455078125,-0.096343994140625,-1.0777740478515625,45.23182678222656,12.741409301757812,-68.87940979003906,,,,,,,,,,
0,2018-10-30 16:42:25.5930,00:36,60,0,2018-10-30 16:42:28.6310,1540932148.6305242,-0.03711381295134426,0.3830123658657789,0.3292359529221359,0.1579742431640625,-0.0818939208984375,-1.103607177734375,45.4315185546875,12.624298095703125,-68.87290954589844,,,,,,,,,,
0,2018-10-30 16:42:25.5930,00:36,60,0,2018-10-30 16:42:28.6470,1540932148.6474261,-0.26148247162943,0.09179703224615927,0.3921115883622527,0.17919921875,-0.06195068359375,-1.1418609619140625,45.55712890625,12.600051879882812,-68.6328125,,,,,,,,,,
0,2018-10-30 16:42:25.5930,00:36,60,0,2018-10-30 16:42:28.6640,1540932148.663896,-0.4386284904904487,-0.24491787596524614,0.35961303358001573,0.15594482421875,-0.02532958984375,-1.1246337890625,45.63691711425781,12.816986083984375,-68.77653503417969,,,,,,,,,,
0,2018-10-30 16:42:25.5930,00:36,60,0,2018-10-30 16:42:28.6810,1540932148.680643,-0.5929858399036594,-0.43529874017952264,0.19343178155907126,0.11346435546875,0.01397705078125,-1.06011962890625,45.506072998046875,13.231826782226562,-68.53401184082031,,,,,,,,,,
0,2018-10-30 16:42:25.5930,00:36,60,0,2018-10-30 16:42:28.6970,1540932148.697269,-0.7083158951223039,-0.42559231695451083,-0.06353530044212939,0.0537872314453125,0.0196685791015625,-1.006256103515625,45.506072998046875,13.231826782226562,-68.53401184082031,,,,,,,,,,
0,2018-10-30 16:42:25.5930,00:36,60,0,2018-10-30 16:42:28.7140,1540932148.7140598,-0.726335908322216,-0.26661757884332077,-0.28500324406090083,0.006134033203125,-0.013824462890625,-0.99755859375,45.388092041015625,13.566085815429688,-68.44993591308594,,,,,,,,,,
0,2018-10-30 16:42:25.5930,00:36,60,0,2018-10-30 16:42:28.7320,1540932148.732193,-0.5600752941007872,0.0036818202070345468,-0.3875125754757948,-0.0003814697265625,-0.059906005859375,-1.0254364013671875,45.36541748046875,14.036880493164062,-68.35557556152344,,,,,,,,,,
0,2018-10-30 16:42:25.5930,00:36,60,0,2018-10-30 16:42:28.7480,1540932148.748083,-0.23285934886547638,0.2686045633326289,-0.3433592288150441,0.0143280029296875,-0.1117401123046875,-1.0705718994140625,45.48973083496094,14.01251220703125,-68.27166748046875,,,,,,,,,,
0,2018-10-30 16:42:25.5930,00:36,60,0,2018-10-30 16:42:28.7640,1540932148.763993,0.12437308501611753,0.3857804555028073,-0.20944297234873666,0.0368499755859375,-0.168914794921875,-1.1122589111328125,45.798919677734375,13.951461791992188,-68.25712585449219,,,,,,,,,,
0,2018-10-30 16:42:25.5930,00:36,60,0,2018-10-30 16:42:28.7810,1540932148.780643,0.3229109453331977,0.34429426467377094,-0.04891268184483132,0.046051025390625,-0.2236328125,-1.1199798583984375,45.95356750488281,13.766342163085938,-67.94334411621094,,,,,,,,,,
0,2018-10-30 16:42:25.5930,00:36,60,0,2018-10-30 16:42:28.7970,1540932148.797297,0.25425198926986486,0.26417732433648117,0.13519324220900047,0.0526275634765625,-0.2583160400390625,-1.066314697265625,45.95356750488281,13.766342163085938,-67.94334411621094,,,,,,,,,,
0,2018-10-30 16:42:25.5930,00:36,60,0,2018-10-30 16:42:28.8140,1540932148.814021,-0.03879400128307525,0.21100118790254202,0.3418745165073249,0.056121826171875,-0.2760162353515625,-0.9874420166015625,46.14167785644531,13.729965209960938,-67.62222290039062,,,,,,,,,,
0,2018-10-30 16:42:25.5930,00:36,60,0,2018-10-30 16:42:28.8310,1540932148.830607,-0.35100676220131566,0.14278937658623347,0.5678173697057565,0.047637939453125,-0.2719879150390625,-0.9599456787109375,46.6968994140625,13.61993408203125,-67.75224304199219,,,,,,,,,,
0,2018-10-30 16:42:25.5930,00:36,60,0,2018-10-30 16:42:28.8470,1540932148.8472419,-0.47708853137282803,0.009198824721242697,0.7379499538360516,0.035552978515625,-0.23114013671875,-0.9960174560546875,46.89854431152344,13.503005981445312,-67.51145935058594,,,,,,,,,,
0,2018-10-30 16:42:25.5930,00:36,60,0,2018-10-30 16:42:28.8640,1540932148.8640141,-0.39513906988945474,-0.12368119576491494,0.7720338884152127,0.00909423828125,-0.1651763916015625,-1.0266571044921875,46.999542236328125,13.949371337890625,-67.41128540039062,,,,,,,,,,
0,2018-10-30 16:42:25.5930,00:36,60,0,2018-10-30 16:42:28.8810,1540932148.880594,-0.1869531095752355,-0.21174980248496328,0.6572929244296937,-0.0293426513671875,-0.109466552734375,-1.025909423828125,47.05632019042969,13.627410888671875,-67.42019653320312,,,,,,,,,,
0,2018-10-30 16:42:25.5930,00:36,60,0,2018-10-30 16:42:28.8970,1540932148.897407,0.04125689265918053,-0.20778249140907223,0.4698420700467224,-0.074920654296875,-0.0929718017578125,-0.9503631591796875,46.98030090332031,13.7200927734375,-67.42086791992188,,,,,,,,,,
0,2018-10-30 16:42:25.5930,00:36,60,0,2018-10-30 16:42:28.9140,1540932148.914263,0.19275613759051816,-0.1675399968091029,0.321005453573246,-0.074920654296875,-0.0929718017578125,-0.9503631591796875,46.98030090332031,13.7200927734375,-67.42086791992188,,,,,,,,,,
0,2018-10-30 16:42:25.5930,00:36,60,0,2018-10-30 16:42:28.9310,1540932148.930682,0.2648367230223848,-0.1462826449880904,0.24177055218899052,-0.0621490478515625,-0.121612548828125,-0.9196319580078125,47.330902099609375,13.108200073242188,-66.95622253417969,,,,,,,,,,
0,2018-10-30 16:42:25.5930,00:36,60,0,2018-10-30 16:42:28.9470,1540932148.94738,0.3134380813357859,-0.15188300644441804,0.17321679098871579,-0.0439910888671875,-0.1663360595703125,-0.90838623046875,47.29356384277344,12.95904541015625,-67.43215942382812,,,,,,,,,,
0,2018-10-30 16:42:25.5930,00:36,60,0,2018-10-30 16:42:28.9630,1540932148.9630399,0.36275263418911013,-0.1974326484646973,0.0853380676543901,-0.0439910888671875,-0.1663360595703125,-0.90838623046875,47.28913879394531,12.64935302734375,-67.36585998535156,,,,,,,,,,
0,2018-10-30 16:42:25.5930,00:36,60,0,2018-10-30 16:42:28.9790,1540932148.979461,0.40383295926801843,-0.22766218999818674,-0.027149595732812795,-0.0426483154296875,-0.18701171875,-0.9056549072265625,47.39292907714844,12.395614624023438,-67.44773864746094,,,,,,,,,,
0,2018-10-30 16:42:25.5930,00:36,60,0,2018-10-30 16:42:28.9970,1540932148.996815,0.3884619924044081,-0.20652281621346477,-0.13741857961587067,-0.039794921875,-0.2152557373046875,-0.8968048095703125,47.208709716796875,12.432357788085938,-67.30026245117188,,,,,,,,,,
0,2018-10-30 16:42:25.5930,00:36,60,0,2018-10-30 16:42:29.0150,1540932149.015141,0.32187071461141276,-0.12775929434215327,-0.1994153718962613,-0.0322723388671875,-0.253021240234375,-0.8952178955078125,47.208709716796875,12.432357788085938,-67.30026245117188,,,,,,,,,,
0,2018-10-30 16:42:25.5930,00:36,60,0,2018-10-30 16:42:29.0310,1540932149.0307322,0.23727247310784666,-0.04153013298702266,-0.1917926059081275,0.0072021484375,-0.30206298828125,-0.94940185546875,47.572723388671875,12.049148559570312,-67.52891540527344,,,,,,,,,,
0,2018-10-30 16:42:25.5930,00:36,60,0,2018-10-30 16:42:29.0470,1540932149.047433,0.16491332102595774,0.017267137559746758,-0.11567147247039263,0.0072021484375,-0.30206298828125,-0.94940185546875,47.52703857421875,11.981048583984375,-67.29975891113281,,,,,,,,,,
0,2018-10-30 16:42:25.5930,00:36,60,0,2018-10-30 16:42:29.0640,1540932149.064083,0.09218904955861894,0.04246090778800536,-0.020316190691778476,0.0247650146484375,-0.3018646240234375,-0.988800048828125,48.11064147949219,11.710052490234375,-67.43421936035156,,,,,,,,,,
0,2018-10-30 16:42:25.5930,00:36,60,0,2018-10-30 16:42:29.0810,1540932149.0808291,0.025720543491876274,0.05364938015964625,0.046107041636432845,0.0389556884765625,-0.2647247314453125,-1.0485382080078125,48.19499206542969,11.92742919921875,-67.03126525878906,,,,,,,,,,
0,2018-10-30 16:42:25.5930,00:36,60,0,2018-10-30 16:42:29.0980,1540932149.09755,0.003103914250487352,0.004116714413044486,0.04498052449532933,0.0389556884765625,-0.2647247314453125,-1.0485382080078125,48.41328430175781,12.039520263671875,-67.09326171875,,,,,,,,,,
0,2018-10-30 16:42:25.5930,00:36,60,0,2018-10-30 16:42:29.1140,1540932149.114231,0.054102916493286746,-0.08366613512203835,-0.034383806517904035,0.0270233154296875,-0.23992919921875,-1.088623046875,48.41328430175781,12.039520263671875,-67.09326171875,,,,,,,,,,
0,2018-10-30 16:42:25.5930,00:36,60,0,2018-10-30 16:42:29.1310,1540932149.131011,0.16773414125256966,-0.1372715731236983,-0.1554846655026412,-0.0044708251953125,-0.2430419921875,-1.1015472412109375,48.5234375,12.09564208984375,-67.00712585449219,,,,,,,,,,
0,2018-10-30 16:42:25.5930,00:36,60,0,2018-10-30 16:42:29.1480,1540932149.1478019,0.2314726408858721,-0.10407500381975159,-0.22506507530314146,-0.0044708251953125,-0.2430419921875,-1.1015472412109375,48.765045166015625,11.736968994140625,-67.08540344238281,,,,,,,,,,
0,2018-10-30 16:42:25.5930,00:36,60,0,2018-10-30 16:42:29.1640,1540932149.164307,0.16998531132201364,-0.01609294983513082,-0.17032779383819785,0.026763916015625,-0.2947540283203125,-1.0638275146484375,48.964752197265625,11.619857788085938,-67.07888793945312,,,,,,,,,,
0,2018-10-30 16:42:25.5930,00:36,60,0,2018-10-30 16:42:29.1810,1540932149.1809468,-0.3072789886827596,-0.12307852241023001,0.14020504506442058,0.0051727294921875,-0.2959747314453125,-1.095855712890625,49.260406494140625,11.63934326171875,-66.98402404785156,,,,,,,,,,
0,2018-10-30 16:42:25.5930,00:36,60,0,2018-10-30 16:42:29.1970,1540932149.197483,-0.3072789886827596,-0.12307852241023001,0.14020504506442058,0.0051727294921875,-0.2959747314453125,-1.095855712890625,49.360076904296875,12.085617065429688,-67.04005432128906,,,,,,,,,,
0,2018-10-30 16:42:25.5930,00:36,60,0,2018-10-30 16:42:29.2140,1540932149.214217,-0.5336604645127272,-0.42367057991190965,0.11847152004050193,-0.0653228759765625,-0.1644287109375,-1.1914215087890625,49.360076904296875,12.085617065429688,-67.04005432128906,,,,,,,,,,
0,2018-10-30 16:42:25.5930,00:36,60,0,2018-10-30 16:42:29.2320,1540932149.232091,-0.48175066117712073,-0.8173925817853332,-0.27289118742322044,-0.1078643798828125,-0.1070556640625,-1.1904449462890625,49.16868591308594,12.512802124023438,-66.64425659179688,,,,,,,,,,
0,2018-10-30 16:42:25.5930,00:36,60,0,2018-10-30 16:42:29.2480,1540932149.247581,-0.48175066117712073,-0.8173925817853332,-0.27289118742322044,-0.1078643798828125,-0.1070556640625,-1.1904449462890625,49.20082092285156,12.661453247070312,-66.79307556152344,,,,,,,,,,
0,2018-10-30 16:42:25.5930,00:36,60,0,2018-10-30 16:42:29.2640,1540932149.2641459,-0.2306659693916871,-0.7421729283765902,-0.48167689161492555,-0.1518096923828125,-0.060821533203125,-1.085296630859375,49.06541442871094,13.075881958007812,-67.09724426269531,,,,,,,,,,
0,2018-10-30 16:42:25.5930,00:36,60,0,2018-10-30 16:42:29.2810,1540932149.2809281,0.33558972265084697,-0.009290703778850431,-0.6458218906663954,-0.1353912353515625,-0.066864013671875,-1.0025634765625,49.03507995605469,13.236663818359375,-67.32710266113281,,,,,,,,,,
0,2018-10-30 16:42:25.5930,00:36,60,0,2018-10-30 16:42:29.2980,1540932149.297566,0.33558972265084697,-0.009290703778850431,-0.6458218906663954,-0.0975189208984375,-0.0899658203125,-0.937255859375,49.29072570800781,13.497894287109375,-66.91317749023438,,,,,,,,,,
0,2018-10-30 16:42:25.5930,00:36,60,0,2018-10-30 16:42:29.3140,1540932149.314467,0.507673604911843,0.8615928000812694,-0.293546398521766,-0.050079345703125,-0.112762451171875,-0.9189605712890625,49.92897033691406,13.6051025390625,-66.79638671875,,,,,,,,,,
0,2018-10-30 16:42:25.5930,00:36,60,0,2018-10-30 16:42:29.3310,1540932149.3310208,0.46930144834543636,1.0861004757682573,-0.08444218026368744,-0.0149993896484375,-0.1168670654296875,-0.9366302490234375,49.92897033691406,13.6051025390625,-66.79638671875,,,,,,,,,,
0,2018-10-30 16:42:25.5930,00:36,60,0,2018-10-30 16:42:29.3480,1540932149.347618,0.46930144834543636,1.0861004757682573,-0.08444218026368744,0.0106201171875,-0.106903076171875,-0.969085693359375,50.68782043457031,13.378341674804688,-66.45133972167969,,,,,,,,,,
0,2018-10-30 16:42:25.5930,00:36,60,0,2018-10-30 16:42:29.3640,1540932149.364213,0.095383777602278,0.9834752968459448,0.2399923595291446,0.0335235595703125,-0.0949859619140625,-0.994720458984375,51.54127502441406,13.2880859375,-66.17408752441406,,,,,,,,,,
0,2018-10-30 16:42:25.5930,00:36,60,0,2018-10-30 16:42:29.3810,1540932149.3810601,-0.1892255849334001,0.6872673351307536,0.34356908590894236,0.0572509765625,-0.08087158203125,-1.0213470458984375,52.30448913574219,13.371002197265625,-65.89529418945312,,,,,,,,,,
0,2018-10-30 16:42:25.5930,00:36,60,0,2018-10-30 16:42:29.3980,1540932149.3977199,-0.1892255849334001,0.6872673351307536,0.34356908590894236,0.0756683349609375,-0.067901611328125,-1.0329437255859375,52.62263488769531,13.620086669921875,-65.40034484863281,,,,,,,,,,
0,2018-10-30 16:42:25.5930,00:36,60,0,2018-10-30 16:42:29.4140,1540932149.4144049,-0.7058061321110132,-0.2962710786330261,0.31892126370415,0.068084716796875,-0.063446044921875,-1.018157958984375,52.83488464355469,14.431991577148438,-65.67082214355469,,,,,,,,,,
0,2018-10-30 16:42:25.5930,00:36,60,0,2018-10-30 16:42:29.4310,1540932149.430979,-0.7815749293365305,-0.8543031955455045,0.21009411523526103,0.03765869140625,-0.070465087890625,-1.001007080078125,52.83488464355469,14.431991577148438,-65.67082214355469,,,,,,,,,,
0,2018-10-30 16:42:25.5930,00:36,60,0,2018-10-30 16:42:29.4490,1540932149.448697,-0.7333834315148927,-1.2511080726968038,0.05753067113232774,-0.0041961669921875,-0.0760650634765625,-0.9468841552734375,52.82511901855469,14.822158813476562,-65.73489379882812,,,,,,,,,,
0,2018-10-30 16:42:25.5930,00:36,60,0,2018-10-30 16:42:29.4640,1540932149.4643512,-0.6304898059547003,-1.3368488103080138,-0.11607946874939276,-0.058685302734375,-0.0924072265625,-0.8450469970703125,52.40040588378906,15.5269775390625,-65.96592712402344,,,,,,,,,,
0,2018-10-30 16:42:25.5930,00:36,60,0,2018-10-30 16:42:29.4810,1540932149.481051,-0.5225865080679597,-1.113421579075271,-0.258254454072145,-0.1065521240234375,-0.1284332275390625,-0.75213623046875,52.121429443359375,15.736480712890625,-66.36360168457031,,,,,,,,,,
0,2018-10-30 16:42:25.5930,00:36,60,0,2018-10-30 16:42:29.4980,1540932149.4976869,-0.4253563608819298,-0.6641782611119846,-0.31447937732200687,-0.13055419921875,-0.169647216796875,-0.6923675537109375,51.788909912109375,16.268264770507812,-66.36189270019531,,,,,,,,,,
0,2018-10-30 16:42:25.5930,00:36,60,0,2018-10-30 16:42:29.5140,1540932149.514368,-0.29266409325262277,-0.12478427708842577,-0.27957838492040943,-0.138885498046875,-0.2086029052734375,-0.6938629150390625,51.787933349609375,17.277847290039062,-66.55851745605469,,,,,,,,,,
0,2018-10-30 16:42:25.5930,00:36,60,0,2018-10-30 16:42:29.5310,1540932149.531125,-0.12915638865000884,0.3426963680197234,-0.1869469843047283,-0.120513916015625,-0.226806640625,-0.753570556640625,51.787933349609375,17.277847290039062,-66.55851745605469,,,,,,,,,,
0,2018-10-30 16:42:25.5930,00:36,60,0,2018-10-30 16:42:29.5480,1540932149.547761,0.06301704929399997,0.5960045329992641,-0.15990924133769885,-0.1041412353515625,-0.2103424072265625,-0.837158203125,52.047332763671875,17.84869384765625,-66.28898620605469,,,,,,,,,,
0,2018-10-30 16:42:25.5930,00:36,60,0,2018-10-30 16:42:29.5640,1540932149.564331,0.20632840545388897,0.6846039077245654,-0.21016495532025714,-0.081817626953125,-0.187744140625,-0.91510009765625,52.655914306640625,18.116775512695312,-66.32395935058594,,,,,,,,,,
0,2018-10-30 16:42:25.5930,00:36,60,0,2018-10-30 16:42:29.5810,1540932149.5810618,0.3014519922176662,0.7032412416651579,-0.2305112397323535,-0.0570068359375,-0.18218994140625,-0.9748687744140625,53.23297119140625,18.236282348632812,-66.13201904296875,,,,,,,,,,
0,2018-10-30 16:42:25.5930,00:36,60,0,2018-10-30 16:42:29.5980,1540932149.598225,0.4782416801248323,0.6754229261826261,-0.18989536994755504,-0.0487060546875,-0.1884002685546875,-1.0703125,53.61033630371094,18.472900390625,-65.946533203125,,,,,,,,,,
0,2018-10-30 16:42:25.5930,00:36,60,0,2018-10-30 16:42:29.6140,1540932149.6144109,0.8295624290186684,0.6990267892401074,-0.17388790758341577,-0.0536956787109375,-0.1780548095703125,-1.1398162841796875,54.06178283691406,18.616607666015625,-65.99468994140625,,,,,,,,,,
0,2018-10-30 16:42:25.5930,00:36,60,0,2018-10-30 16:42:29.6380,1540932149.637639,1.2144672371550576,0.7039594962111522,-0.16754931787291816,-0.013458251953125,-0.171844482421875,-1.19683837890625,54.618316650390625,18.5067138671875,-65.968505859375,,,,,,,,,,
0,2018-10-30 16:42:25.5930,00:36,60,0,2018-10-30 16:42:29.6480,1540932149.647851,1.2144672371550576,0.7039594962111522,-0.16754931787291816,-0.013458251953125,-0.171844482421875,-1.19683837890625,54.618316650390625,18.5067138671875,-65.968505859375,,,,,,,,,,
0,2018-10-30 16:42:25.5930,00:36,60,0,2018-10-30 16:42:29.6660,1540932149.666222,0.9466445779184759,0.49968571953825935,-0.10348511363829904,0.073333740234375,-0.233123779296875,-1.1245269775390625,55.070404052734375,18.6505126953125,-65.93856811523438,,,,,,,,,,
0,2018-10-30 16:42:25.5930,00:36,60,0,2018-10-30 16:42:29.6820,1540932149.681664,0.4862356907689232,0.11554151020919676,-0.037454697570874405,0.0901031494140625,-0.2168121337890625,-1.115997314453125,55.11039733886719,18.408767700195312,-66.25762939453125,,,,,,,,,,
0,2018-10-30 16:42:25.5930,00:36,60,0,2018-10-30 16:42:29.6980,1540932149.697833,0.019130018742257185,-0.325542414806305,-0.051807537949747455,0.06182861328125,-0.188140869140625,-1.141357421875,55.20683288574219,18.854721069335938,-66.70411682128906,,,,,,,,,,
0,2018-10-30 16:42:25.5930,00:36,60,0,2018-10-30 16:42:29.7150,1540932149.7147021,-0.24252156361639285,-0.5928721229251129,-0.1923571960592243,0.0307159423828125,-0.182525634765625,-1.1632080078125,54.705474853515625,19.652145385742188,-67.01394653320312,,,,,,,,,,
0,2018-10-30 16:42:25.5930,00:36,60,0,2018-10-30 16:42:29.7310,1540932149.73141,-0.29800719334764875,-0.5767514762146453,-0.3036935749071859,0.058929443359375,-0.1806640625,-1.1756134033203125,54.21894836425781,20.369171142578125,-67.24790954589844,,,,,,,,,,
0,2018-10-30 16:42:25.5930,00:36,60,0,2018-10-30 16:42:29.7500,1540932149.7502441,-0.21617837306165605,-0.40016152538923516,-0.3013537215734423,0.1015625,-0.197540283203125,-1.1757049560546875,53.986114501953125,21.347213745117188,-67.30220031738281,,,,,,,,,,
0,2018-10-30 16:42:25.5930,00:36,60,0,2018-10-30 16:42:29.7650,1540932149.765269,-0.07837976035823106,-0.19099445652943073,-0.1951135677874563,0.150604248046875,-0.211700439453125,-1.1439208984375,53.986114501953125,21.347213745117188,-67.30220031738281,,,,,,,,,,
0,2018-10-30 16:42:25.5930,00:36,60,0,2018-10-30 16:42:29.7810,1540932149.781214,-0.022787604183372008,-0.057277937144879214,0.04276930184223653,0.1824798583984375,-0.2090606689453125,-1.0879974365234375,53.85984802246094,21.371383666992188,-67.62042236328125,,,,,,,,,,
0,2018-10-30 16:42:25.5930,00:36,60,0,2018-10-30 16:42:29.7980,1540932149.7980762,-0.11922199883568627,-0.04128059479288224,0.33087406330864366,0.1680908203125,-0.1852569580078125,-1.044586181640625,53.757232666015625,21.93450927734375,-67.99533081054688,,,,,,,,,,
0,2018-10-30 16:42:25.5930,00:36,60,0,2018-10-30 16:42:29.8150,1540932149.814683,-0.29457997134082575,-0.1420098693351673,0.5160511107529053,0.13568115234375,-0.132293701171875,-1.0133819580078125,53.68754577636719,22.33709716796875,-67.8280029296875,,,,,,,,,,
0,2018-10-30 16:42:25.5930,00:36,60,0,2018-10-30 16:42:29.8310,1540932149.831087,-0.4550620586290007,-0.2586219703025759,0.5801976066652079,0.108245849609375,-0.0693206787109375,-0.983306884765625,53.7247314453125,22.795486450195312,-67.96504211425781,,,,,,,,,,
0,2018-10-30 16:42:25.5930,00:36,60,0,2018-10-30 16:42:29.8480,1540932149.847857,-0.5664530322793089,-0.33425281578362714,0.5565721720028969,0.0584869384765625,-0.0321502685546875,-0.977386474609375,53.7247314453125,22.795486450195312,-67.96504211425781,,,,,,,,,,
0,2018-10-30 16:42:25.5930,00:36,60,0,2018-10-30 16:42:29.8640,1540932149.8644981,-0.5866797407584607,-0.37586444150000625,0.4622898778274757,0.012786865234375,-0.01080322265625,-0.9768524169921875,53.412139892578125,23.556625366210938,-67.87564086914062,,,,,,,,,,
0,2018-10-30 16:42:25.5930,00:36,60,0,2018-10-30 16:42:29.8810,1540932149.881304,-0.4443050183539526,-0.21818932600077487,0.1808134579981668,-0.0187835693359375,-0.0097808837890625,-0.95855712890625,53.26448059082031,24.051712036132812,-67.94331359863281,,,,,,,,,,
0,2018-10-30 16:42:25.5930,00:36,60,0,2018-10-30 16:42:29.8990,1540932149.899148,-0.4193197736390472,-0.05045838054151331,0.10069971345418516,-0.0216827392578125,-0.037353515625,-0.9243316650390625,53.15809631347656,24.305221557617188,-68.17381286621094,,,,,,,,,,
0,2018-10-30 16:42:25.5930,00:36,60,0,2018-10-30 16:42:29.9150,1540932149.914649,-0.4351035304716198,0.07919921502564845,0.17261118815683177,0.003662109375,-0.0941314697265625,-0.906951904296875,52.72181701660156,25.09075927734375,-68.09024047851562,,,,,,,,,,
0,2018-10-30 16:42:25.5930,00:36,60,0,2018-10-30 16:42:29.9310,1540932149.931294,-0.44675006655075433,0.1196196087864351,0.3707732764441018,0.021759033203125,-0.1486053466796875,-0.91717529296875,52.57545471191406,25.58599853515625,-68.00169372558594,,,,,,,,,,
0,2018-10-30 16:42:25.5930,00:36,60,0,2018-10-30 16:42:29.9480,1540932149.947989,-0.40511793449398165,0.11187353843983062,0.5849260491806436,0.0217437744140625,-0.1735382080078125,-0.9467620849609375,52.863250732421875,25.995864868164062,-67.73661804199219,,,,,,,,,,
0,2018-10-30 16:42:25.5930,00:36,60,0,2018-10-30 16:42:29.9650,1540932149.964572,-0.3129523207529554,0.076932065989664,0.7165767545076206,-0.0003204345703125,-0.156829833984375,-0.960968017578125,52.863250732421875,25.995864868164062,-67.73661804199219,,,,,,,,,,
0,2018-10-30 16:42:25.5930,00:36,60,0,2018-10-30 16:42:29.9810,1540932149.981237,-0.1897699350602123,-0.05188876436299487,0.7185299168510847,-0.0351715087890625,-0.1288909912109375,-0.968048095703125,52.67120361328125,26.423004150390625,-67.41893005371094,,,,,,,,,,
0,2018-10-30 16:42:25.5930,00:36,60,0,2018-10-30 16:42:29.9980,1540932149.998263,-0.04900802301185616,-0.23783519904618042,0.6283142696602145,-0.0738983154296875,-0.103851318359375,-0.9796295166015625,52.69764709472656,26.261825561523438,-67.65766906738281,,,,,,,,,,
0,2018-10-30 16:42:25.5930,00:36,60,0,2018-10-30 16:42:30.0150,1540932150.014638,0.14404558967242384,-0.36788134981638476,0.49853310341847307,-0.111602783203125,-0.0855560302734375,-0.9835357666015625,52.638916015625,26.583602905273438,-67.88307189941406,,,,,,,,,,
0,2018-10-30 16:42:25.5930,00:36,60,0,2018-10-30 16:42:30.0310,1540932150.031443,0.3190389754243315,-0.40681756390167023,0.34852229922038075,-0.1463165283203125,-0.078460693359375,-0.9783935546875,52.38832092285156,26.632125854492188,-68.28517150878906,,,,,,,,,,
0,2018-10-30 16:42:25.5930,00:36,60,0,2018-10-30 16:42:30.0480,1540932150.048006,0.34313552328347746,-0.4551600629571156,0.2081739760893139,-0.1702423095703125,-0.0963134765625,-0.9538726806640625,51.91877746582031,26.568511962890625,-68.70338439941406,,,,,,,,,,
0,2018-10-30 16:42:25.5930,00:36,60,0,2018-10-30 16:42:30.0650,1540932150.064621,0.23220394492120786,-0.5087133030014099,0.07213518023421327,-0.167205810546875,-0.1216888427734375,-0.9254150390625,51.91877746582031,26.568511962890625,-68.70338439941406,,,,,,,,,,
0,2018-10-30 16:42:25.5930,00:36,60,0,2018-10-30 16:42:30.0810,1540932150.081316,0.11932985685983448,-0.5481312829278908,-0.07780691440775503,-0.1696624755859375,-0.1399688720703125,-0.9317626953125,51.48332214355469,26.653732299804688,-69.0361328125,,,,,,,,,,
0,2018-10-30 16:42:25.5930,00:36,60,0,2018-10-30 16:42:30.0990,1540932150.099359,0.062078018693638035,-0.6098053000841638,-0.20530175685366342,-0.168182373046875,-0.154327392578125,-0.979156494140625,50.71275329589844,27.270492553710938,-69.67955017089844,,,,,,,,,,
0,2018-10-30 16:42:25.5930,00:36,60,0,2018-10-30 16:42:30.1160,1540932150.1159801,0.013183446344219254,-0.6695719612677221,-0.2888909266201985,-0.15594482421875,-0.1751556396484375,-1.035125732421875,50.05900573730469,27.243637084960938,-69.95028686523438,,,,,,,,,,
0,2018-10-30 16:42:25.5930,00:36,60,0,2018-10-30 16:42:30.1320,1540932150.13232,0.021841915680284874,-0.6586247712908424,-0.34242259505966327,-0.1449737548828125,-0.19219970703125,-1.086273193359375,49.02510070800781,27.680282592773438,-70.22445678710938,,,,,,,,,,
0,2018-10-30 16:42:25.5930,00:36,60,0,2018-10-30 16:42:30.1480,1540932150.148016,0.1645255647712422,-0.5182306417890261,-0.36048841463032477,-0.1456298828125,-0.1837310791015625,-1.1316375732421875,48.154205322265625,27.850738525390625,-70.88996887207031,,,,,,,,,,
0,2018-10-30 16:42:25.5930,00:36,60,0,2018-10-30 16:42:30.1650,1540932150.164794,0.4292075581342934,-0.3032562838561949,-0.3881293635842572,-0.154754638671875,-0.1617584228515625,-1.1677398681640625,48.154205322265625,27.850738525390625,-70.88996887207031,,,,,,,,,,
0,2018-10-30 16:42:25.5930,00:36,60,0,2018-10-30 16:42:30.1810,1540932150.18133,0.7077094933420928,-0.09990529250101453,-0.517519844094084,-0.17474365234375,-0.137664794921875,-1.168060302734375,47.45787048339844,28.06536865234375,-71.15403747558594,,,,,,,,,,
0,2018-10-30 16:42:25.5930,00:36,60,0,2018-10-30 16:42:30.1980,1540932150.1981,0.8746686547174494,0.0009688580045708269,-0.7187576171242865,-0.183380126953125,-0.137420654296875,-1.140625,46.79710388183594,27.728546142578125,-71.67086791992188,,,,,,,,,,
0,2018-10-30 16:42:25.5930,00:36,60,0,2018-10-30 16:42:30.2150,1540932150.214744,0.8234139890100024,0.016010125525229357,-0.8408049635604379,-0.162689208984375,-0.1846466064453125,-1.0785980224609375,46.12278747558594,27.4722900390625,-72.10739135742188,,,,,,,,,,
0,2018-10-30 16:42:25.5930,00:36,60,0,2018-10-30 16:42:30.2310,1540932150.23136,0.5568920176498154,-0.06263808147088169,-0.8194205789554286,-0.10968017578125,-0.2497711181640625,-1.0103607177734375,45.37310791015625,27.308822631835938,-72.46649169921875,,,,,,,,,,
0,2018-10-30 16:42:25.5930,00:36,60,0,2018-10-30 16:42:30.2480,1540932150.2480159,0.23842748607261405,-0.1529810277618577,-0.7241486541189339,-0.096466064453125,-0.3152618408203125,-0.9772186279296875,44.425018310546875,27.262588500976562,-72.6759033203125,,,,,,,,,,
0,2018-10-30 16:42:25.5930,00:36,60,0,2018-10-30 16:42:30.2650,1540932150.264797,-0.017757691832539352,-0.11008922050947753,-0.556979635649679,-0.092193603515625,-0.3386993408203125,-0.951812744140625,43.68232727050781,27.409042358398438,-72.78889465332031,,,,,,,,,,
0,2018-10-30 16:42:25.5930,00:36,60,0,2018-10-30 16:42:30.2810,1540932150.281492,-0.23024465730723656,0.10413199546707928,-0.33285412357911753,-0.0951385498046875,-0.3339385986328125,-0.92791748046875,43.68232727050781,27.409042358398438,-72.78889465332031,,,,,,,,,,
0,2018-10-30 16:42:25.5930,00:36,60,0,2018-10-30 16:42:30.2980,1540932150.29813,-0.4788419566345362,0.4200412239783497,-0.0261381271508007,-0.09112548828125,-0.3116455078125,-0.912353515625,43.21980285644531,27.655380249023438,-72.96102905273438,,,,,,,,,,
0,2018-10-30 16:42:25.5930,00:36,60,0,2018-10-30 16:42:30.3150,1540932150.314832,-0.7224551499817525,0.7098754422566542,0.29767829295302395,-0.080535888671875,-0.2508087158203125,-0.94000244140625,43.088287353515625,28.070159912109375,-72.79661560058594,,,,,,,,,,
0,2018-10-30 16:42:25.5930,00:36,60,0,2018-10-30 16:42:30.3320,1540932150.331705,-0.8189449383847405,0.9198284099541411,0.4992825169492214,-0.0900726318359375,-0.15185546875,-1.007843017578125,43.3858642578125,28.089874267578125,-72.46743774414062,,,,,,,,,,
0,2018-10-30 16:42:25.5930,00:36,60,0,2018-10-30 16:42:30.3480,1540932150.348305,-0.7344423043643081,0.9405552600860098,0.5228466989064605,-0.097930908203125,-0.041229248046875,-1.0925140380859375,43.832733154296875,28.624282836914062,-71.95487976074219,,,,,,,,,,
0,2018-10-30 16:42:25.5930,00:36,60,0,2018-10-30 16:42:30.3650,1540932150.3648372,-0.5731876340439013,0.7966934285288013,0.40804821064139585,-0.092010498046875,0.0297088623046875,-1.112060546875,44.10566711425781,29.114608764648438,-71.76567077636719,,,,,,,,,,
0,2018-10-30 16:42:25.5930,00:36,60,0,2018-10-30 16:42:30.3810,1540932150.381484,-0.4027362695311238,0.6011945013316106,0.2010897012735941,-0.0953521728515625,0.0576019287109375,-1.0819854736328125,44.10566711425781,29.114608764648438,-71.76567077636719,,,,,,,,,,
0,2018-10-30 16:42:25.5930,00:36,60,0,2018-10-30 16:42:30.3980,1540932150.3981109,-0.24191622710061783,0.38214683851150316,-0.04444656069676844,-0.10321044921875,0.062835693359375,-1.027252197265625,44.065032958984375,29.35626220703125,-71.52470397949219,,,,,,,,,,
0,2018-10-30 16:42:25.5930,00:36,60,0,2018-10-30 16:42:30.4150,1540932150.414846,-0.11867232238669391,0.21729184071341817,-0.22779694594934474,-0.0903778076171875,0.0426483154296875,-0.9720306396484375,43.87953186035156,29.392898559570312,-71.53343200683594,,,,,,,,,,
0,2018-10-30 16:42:25.5930,00:36,60,0,2018-10-30 16:42:30.4320,1540932150.431526,-0.052187304721192755,0.09262847113848202,-0.3179191161859532,-0.062744140625,0.01727294921875,-0.9117889404296875,43.42742919921875,29.249114990234375,-71.56336975097656,,,,,,,,,,
0,2018-10-30 16:42:25.5930,00:36,60,0,2018-10-30 16:42:30.4480,1540932150.448257,-0.08446242028797205,0.037570545078292855,-0.2665778977430786,-0.0208740234375,-0.026275634765625,-0.862274169921875,42.947601318359375,29.266372680664062,-71.51077270507812,,,,,,,,,,
0,2018-10-30 16:42:25.5930,00:36,60,0,2018-10-30 16:42:30.4650,1540932150.46489,-0.2123042726239178,0.04788949535402288,-0.10590512812085404,0.00701904296875,-0.0481719970703125,-0.8181610107421875,42.60807800292969,29.48822021484375,-71.75515747070312,,,,,,,,,,
0,2018-10-30 16:42:25.5930,00:36,60,0,2018-10-30 16:42:30.4810,1540932150.481485,-0.33664193759753724,0.08536070452365578,0.018390991539760194,0.0047149658203125,-0.0531158447265625,-0.7969207763671875,42.60807800292969,29.48822021484375,-71.75515747070312,,,,,,,,,,
0,2018-10-30 16:42:25.5930,00:36,60,0,2018-10-30 16:42:30.4980,1540932150.498127,-0.3663074216121479,0.06944272437214316,0.013024189311032514,-0.0278778076171875,-0.040252685546875,-0.8070220947265625,42.27178955078125,29.710372924804688,-71.60905456542969,,,,,,,,,,
0,2018-10-30 16:42:25.5930,00:36,60,0,2018-10-30 16:42:30.5150,1540932150.5148458,-0.31710791731791504,0.007742874553296377,-0.09307907799492342,-0.061431884765625,-0.0337677001953125,-0.837158203125,42.191375732421875,29.493408203125,-71.54345703125,,,,,,,,,,
0,2018-10-30 16:42:25.5930,00:36,60,0,2018-10-30 16:42:30.5320,1540932150.531503,-0.2380599698421831,-0.023894147616299932,-0.21521537401148338,-0.0779266357421875,-0.040496826171875,-0.852264404296875,41.666351318359375,29.751876831054688,-71.79656982421875,,,,,,,,,,
0,2018-10-30 16:42:25.5930,00:36,60,0,2018-10-30 16:42:30.5490,1540932150.5492449,-0.14596998987611512,0.0013819142896421166,-0.2655368680729666,-0.0716094970703125,-0.0607757568359375,-0.866241455078125,41.27738952636719,29.595977783203125,-71.66740417480469,,,,,,,,,,
0,2018-10-30 16:42:25.5930,00:36,60,0,2018-10-30 16:42:30.5660,1540932150.565884,-0.03570846284410945,0.0726371860996932,-0.2269244943762348,-0.0511016845703125,-0.085113525390625,-0.8897857666015625,40.87095642089844,29.520294189453125,-71.926513671875,,,,,,,,,,
0,2018-10-30 16:42:25.5930,00:36,60,0,2018-10-30 16:42:30.5830,1540932150.58294,0.08644647530008108,0.1868284736362198,-0.13471893321885736,-0.016357421875,-0.1056671142578125,-0.9512481689453125,40.69964599609375,29.4764404296875,-71.93746948242188,,,,,,,,,,
0,2018-10-30 16:42:25.5930,00:36,60,0,2018-10-30 16:42:30.5980,1540932150.5983,0.18625163294410862,0.27853762156640643,-0.04681917091192003,-0.016357421875,-0.1056671142578125,-0.9512481689453125,40.69964599609375,29.4764404296875,-71.93746948242188,,,,,,,,,,
0,2018-10-30 16:42:25.5930,00:36,60,0,2018-10-30 16:42:30.6150,1540932150.614855,0.26148327057775705,0.3252563913052305,-0.009299492210447692,-0.0095062255859375,-0.1050872802734375,-0.9815673828125,40.69329833984375,29.166549682617188,-72.10546875,,,,,,,,,,
0,2018-10-30 16:42:25.5930,00:36,60,0,2018-10-30 16:42:30.6320,1540932150.631649,0.32980240728599575,0.3018954085391644,-0.011486480097620762,-0.00946044921875,-0.1232147216796875,-1.04327392578125,40.761016845703125,28.763763427734375,-72.507080078125,,,,,,,,,,
0,2018-10-30 16:42:25.5930,00:36,60,0,2018-10-30 16:42:30.6480,1540932150.648145,0.3893496239957315,0.23443114654084113,-0.05334764400814027,-0.00946044921875,-0.1232147216796875,-1.04327392578125,40.64454650878906,28.397750854492188,-72.76123046875,,,,,,,,,,
0,2018-10-30 16:42:25.5930,00:36,60,0,2018-10-30 16:42:30.6650,1540932150.664917,0.4446802577515448,0.15531528845731216,-0.14662352960762057,-0.0193939208984375,-0.1343841552734375,-1.0576019287109375,40.28070068359375,28.080581665039062,-73.02699279785156,,,,,,,,,,
0,2018-10-30 16:42:25.5930,00:36,60,0,2018-10-30 16:42:30.6820,1540932150.6816468,0.4286317827066183,0.11571967568612306,-0.21413279902836618,-0.0059051513671875,-0.1943511962890625,-1.020294189453125,39.94902038574219,27.912033081054688,-73.44160461425781,,,,,,,,,,
0,2018-10-30 16:42:25.5930,00:36,60,0,2018-10-30 16:42:30.6980,1540932150.69833,0.282187217524251,0.1353927129746474,-0.1840891461389643,-0.0059051513671875,-0.1943511962890625,-1.020294189453125,39.94902038574219,27.912033081054688,-73.44160461425781,,,,,,,,,,
0,2018-10-30 16:42:25.5930,00:36,60,0,2018-10-30 16:42:30.7150,1540932150.7150211,-0.007642739696309398,0.1894064135714165,-0.012614861451487335,0.0216827392578125,-0.2305908203125,-1.005859375,39.9439697265625,27.602279663085938,-73.45341491699219,,,,,,,,,,
0,2018-10-30 16:42:25.5930,00:36,60,0,2018-10-30 16:42:30.7320,1540932150.7316132,-0.48965279276360385,0.21073034441968094,0.13958985485261227,-0.0105438232421875,-0.2004547119140625,-1.051239013671875,39.98591613769531,27.360748291015625,-73.53819274902344,,,,,,,,,,
0,2018-10-30 16:42:25.5930,00:36,60,0,2018-10-30 16:42:30.7480,1540932150.748343,-0.48965279276360385,0.21073034441968094,0.13958985485261227,-0.0105438232421875,-0.2004547119140625,-1.051239013671875,39.696624755859375,27.651123046875,-73.46504211425781,,,,,,,,,,
0,2018-10-30 16:42:25.5930,00:36,60,0,2018-10-30 16:42:30.7660,1540932150.7664518,-0.6425288919785125,0.1856287195651391,0.021800902999497652,-0.0594940185546875,-0.157196044921875,-1.1108245849609375,39.95948791503906,27.52191162109375,-73.29945373535156,,,,,,,,,,
0,2018-10-30 16:42:25.5930,00:36,60,0,2018-10-30 16:42:30.7830,1540932150.782682,-0.4967336054699065,0.1603076502367747,-0.2170676025496335,-0.013214111328125,-0.165313720703125,-1.223297119140625,39.36866760253906,28.183380126953125,-72.91667175292969,,,,,,,,,,
0,2018-10-30 16:42:25.5930,00:36,60,0,2018-10-30 16:42:30.7980,1540932150.798424,-0.4967336054699065,0.1603076502367747,-0.2170676025496335,-0.013214111328125,-0.165313720703125,-1.223297119140625,39.36866760253906,28.183380126953125,-72.91667175292969,,,,,,,,,,
0,2018-10-30 16:42:25.5930,00:36,60,0,2018-10-30 16:42:30.8150,1540932150.815062,-0.18638772047581167,0.243030760016816,-0.010363957698152364,0.187591552734375,-0.18988037109375,-1.3193206787109375,39.38287353515625,28.102890014648438,-72.91889953613281,,,,,,,,,,
0,2018-10-30 16:42:25.5930,00:36,60,0,2018-10-30 16:42:30.8320,1540932150.831785,0.32174687762072407,0.07080999127578984,0.7239124317302439,0.1994171142578125,-0.151763916015625,-1.2803497314453125,39.47767639160156,27.538986206054688,-73.48114013671875,,,,,,,,,,
0,2018-10-30 16:42:25.5930,00:36,60,0,2018-10-30 16:42:30.8480,1540932150.848312,0.32174687762072407,0.07080999127578984,0.7239124317302439,0.06884765625,-0.0224456787109375,-1.177764892578125,39.56285095214844,27.0560302734375,-73.49447631835938,,,,,,,,,,
0,2018-10-30 16:42:25.5930,00:36,60,0,2018-10-30 16:42:30.8650,1540932150.864894,0.1808129253659488,-0.3230057538680045,0.2779820861630159,0.06878662109375,0.1113739013671875,-1.0746612548828125,39.414886474609375,26.54144287109375,-73.52168273925781,,,,,,,,,,
0,2018-10-30 16:42:25.5930,00:36,60,0,2018-10-30 16:42:30.8820,1540932150.881693,0.1808129253659488,-0.3230057538680045,0.2779820861630159,0.06878662109375,0.1113739013671875,-1.0746612548828125,39.103759765625,26.602325439453125,-73.77053833007812,,,,,,,,,,
0,2018-10-30 16:42:25.5930,00:36,60,0,2018-10-30 16:42:30.8980,1540932150.8983731,-0.13198945941763515,-0.5995595867384109,-0.13777810636303137,0.0436553955078125,0.1123046875,-0.9023590087890625,38.20460510253906,26.624481201171875,-73.81861877441406,,,,,,,,,,
0,2018-10-30 16:42:25.5930,00:36,60,0,2018-10-30 16:42:30.9150,1540932150.915123,-0.9861499095287114,-0.6383863449028941,-0.27897411366907043,0.10479736328125,0.0874176025390625,-0.8701629638671875,38.20460510253906,26.624481201171875,-73.81861877441406,,,,,,,,,,
0,2018-10-30 16:42:25.5930,00:36,60,0,2018-10-30 16:42:30.9320,1540932150.931714,-0.9861499095287114,-0.6383863449028941,-0.27897411366907043,0.10479736328125,0.0874176025390625,-0.8701629638671875,37.516571044921875,27.149169921875,-73.68040466308594,,,,,,,,,,
0,2018-10-30 16:42:25.5930,00:36,60,0,2018-10-30 16:42:30.9490,1540932150.948524,-1.1022418951352275,-0.48463885937931167,-0.03995434057002278,0.135498046875,-0.009796142578125,-0.991241455078125,37.00050354003906,27.717803955078125,-73.453125,,,,,,,,,,
0,2018-10-30 16:42:25.5930,00:36,60,0,2018-10-30 16:42:30.9660,1540932150.96554,-0.6823338292113817,0.2122305030617226,0.49730591878816455,0.0978851318359375,0.0592498779296875,-1.0135498046875,36.96051025390625,27.95953369140625,-73.13406372070312,,,,,,,,,,
0,2018-10-30 16:42:25.5930,00:36,60,0,2018-10-30 16:42:30.9820,1540932150.9817882,-0.6823338292113817,0.2122305030617226,0.49730591878816455,0.05499267578125,0.120086669921875,-1.0092315673828125,37.305084228515625,28.04742431640625,-72.87788391113281,,,,,,,,,,
0,2018-10-30 16:42:25.5930,00:36,60,0,2018-10-30 16:42:30.9980,1540932150.9984841,-0.03002208128457226,0.930814748399045,0.45627166639611466,0.0193328857421875,0.1348724365234375,-1.0079498291015625,37.97303771972656,27.993804931640625,-72.60934448242188,,,,,,,,,,
0,2018-10-30 16:42:25.5930,00:36,60,0,2018-10-30 16:42:31.0150,1540932151.015174,0.2924446487788002,0.8732129708656121,0.2922811306878694,-0.00482177734375,0.1014862060546875,-1.0590057373046875,37.97303771972656,27.993804931640625,-72.60934448242188,,,,,,,,,,
0,2018-10-30 16:42:25.5930,00:36,60,0,2018-10-30 16:42:31.0320,1540932151.031883,0.2924446487788002,0.8732129708656121,0.2922811306878694,-0.0005645751953125,0.0549468994140625,-1.070404052734375,38.44715881347656,27.666732788085938,-72.75184631347656,,,,,,,,,,
0,2018-10-30 16:42:25.5930,00:36,60,0,2018-10-30 16:42:31.0480,1540932151.04845,0.6026568430861731,0.03998150481314159,-0.08469384898669993,0.015960693359375,-0.0119781494140625,-1.0553131103515625,38.54393005371094,27.10302734375,-73.07981872558594,,,,,,,,,,
0,2018-10-30 16:42:25.5930,00:36,60,0,2018-10-30 16:42:31.0650,1540932151.065188,0.5540442994961937,-0.31514862970394375,-0.14830105477826147,0.0415802001953125,-0.0850982666015625,-0.972381591796875,38.311614990234375,26.371047973632812,-73.50999450683594,,,,,,,,,,
0,2018-10-30 16:42:25.5930,00:36,60,0,2018-10-30 16:42:31.0820,1540932151.081991,0.5540442994961937,-0.31514862970394375,-0.14830105477826147,0.0536651611328125,-0.150299072265625,-0.877105712890625,37.77778625488281,26.0101318359375,-73.63052368164062,,,,,,,,,,
0,2018-10-30 16:42:25.5930,00:36,60,0,2018-10-30 16:42:31.1010,1540932151.101108,0.3269243290959471,-0.4485125465601688,-0.06274194475339478,0.0297088623046875,-0.183074951171875,-0.8327484130859375,37.214263916015625,25.810104370117188,-73.90281677246094,,,,,,,,,,
0,2018-10-30 16:42:25.5930,00:36,60,0,2018-10-30 16:42:31.1170,1540932151.116754,0.2882901174782766,-0.29250563516776307,-0.03362693613610352,0.0146636962890625,-0.1826324462890625,-0.83575439453125,36.90721130371094,25.170944213867188,-74.177490234375,,,,,,,,,,
0,2018-10-30 16:42:25.5930,00:36,60,0,2018-10-30 16:42:31.1330,1540932151.133362,0.3400814101453746,-0.04875608797273466,0.0159209096287117,0.0238189697265625,-0.1641387939453125,-0.8818817138671875,36.90721130371094,25.170944213867188,-74.177490234375,,,,,,,,,,
0,2018-10-30 16:42:25.5930,00:36,60,0,2018-10-30 16:42:31.1500,1540932151.1500912,0.4874418364266201,0.148755656376338,0.03861716738669399,0.0281219482421875,-0.1370086669921875,-0.9730377197265625,37.01947021484375,24.526885986328125,-74.35148620605469,,,,,,,,,,
0,2018-10-30 16:42:25.5930,00:36,60,0,2018-10-30 16:42:31.1670,1540932151.167347,0.6290261326195927,0.17026041586261884,0.001129446618302605,0.0242462158203125,-0.1140594482421875,-1.0576171875,36.79286193847656,24.104721069335938,-74.6917724609375,,,,,,,,,,
0,2018-10-30 16:42:25.5930,00:36,60,0,2018-10-30 16:42:31.1840,1540932151.183989,0.659859945404421,0.06861448127312851,-0.07931799201026599,0.0207366943359375,-0.10772705078125,-1.094207763671875,36.610137939453125,23.441207885742188,-74.88253784179688,,,,,,,,,,
0,2018-10-30 16:42:25.5930,00:36,60,0,2018-10-30 16:42:31.2000,1540932151.2001429,0.5572534086097392,-0.09127771583359383,-0.150167398070189,0.03759765625,-0.1128692626953125,-1.087738037109375,36.38484191894531,23.019195556640625,-75.06661987304688,,,,,,,,,,
0,2018-10-30 16:42:25.5930,00:36,60,0,2018-10-30 16:42:31.2170,1540932151.2169042,0.3796605113178052,-0.2517416936263562,-0.16852723062519526,0.05694580078125,-0.13330078125,-1.080108642578125,35.87091064453125,22.887619018554688,-75.0994873046875,,,,,,,,,,
0,2018-10-30 16:42:25.5930,00:36,60,0,2018-10-30 16:42:31.2330,1540932151.2333999,0.23371102778208372,-0.29154050558871836,-0.14391136635348387,0.055816650390625,-0.141815185546875,-1.0754547119140625,35.87091064453125,22.887619018554688,-75.0994873046875,,,,,,,,,,
0,2018-10-30 16:42:25.5930,00:36,60,0,2018-10-30 16:42:31.2500,1540932151.250083,0.1985008423779281,-0.21990200489780484,-0.12239728580338774,0.0477447509765625,-0.1270751953125,-1.0837860107421875,35.48912048339844,22.34130859375,-75.21864318847656,,,,,,,,,,
0,2018-10-30 16:42:25.5930,00:36,60,0,2018-10-30 16:42:31.2670,1540932151.266854,0.24889077967942635,-0.14341575207462012,-0.16622040048896863,0.023284912109375,-0.1170196533203125,-1.109344482421875,35.180145263671875,21.701980590820312,-75.72760009765625,,,,,,,,,,
0,2018-10-30 16:42:25.5930,00:36,60,0,2018-10-30 16:42:31.2830,1540932151.283358,0.2980937460830763,-0.09373128614588383,-0.2668319633110722,-0.016632080078125,-0.1304931640625,-1.1228790283203125,35.01161193847656,20.957977294921875,-75.92057800292969,,,,,,,,,,
0,2018-10-30 16:42:25.5930,00:36,60,0,2018-10-30 16:42:31.3000,1540932151.300157,0.21950838968869113,-0.06765015064241083,-0.37922135605405116,-0.061767578125,-0.1810760498046875,-1.10235595703125,34.930511474609375,20.74090576171875,-75.93307495117188,,,,,,,,,,
0,2018-10-30 16:42:25.5930,00:36,60,0,2018-10-30 16:42:31.3170,1540932151.316869,-0.06216483774517462,-0.08118353635386649,-0.375957652138159,-0.076904296875,-0.2390594482421875,-1.06512451171875,34.560821533203125,20.814315795898438,-75.79434204101562,,,,,,,,,,
0,2018-10-30 16:42:25.5930,00:36,60,0,2018-10-30 16:42:31.3340,1540932151.33358,-0.5056163129697568,-0.101433680650611,-0.19811281980710355,-0.035125732421875,-0.264678955078125,-1.0215911865234375,34.560821533203125,20.814315795898438,-75.79434204101562,,,,,,,,,,
0,2018-10-30 16:42:25.5930,00:36,60,0,2018-10-30 16:42:31.3490,1540932151.349424,-0.8864012108997935,-0.0513018036587414,0.0804647491756541,0.0033721923828125,-0.2335052490234375,-1.023773193359375,34.17100524902344,21.358749389648438,-75.24887084960938,,,,,,,,,,
0,2018-10-30 16:42:25.5930,00:36,60,0,2018-10-30 16:42:31.3650,1540932151.3653278,-0.9206121782629514,0.04255252052950408,0.2240842330736653,-0.0450592041015625,0.003814697265625,-1.2059478759765625,34.26692199707031,21.495391845703125,-75.16049194335938,,,,,,,,,,
0,2018-10-30 16:42:25.5930,00:36,60,0,2018-10-30 16:42:31.3820,1540932151.3819618,-0.5475182232449546,0.10012846540036317,0.07735737281574964,-0.0450592041015625,0.003814697265625,-1.2059478759765625,34.21275329589844,21.817626953125,-74.83921813964844,,,,,,,,,,
0,2018-10-30 16:42:25.5930,00:36,60,0,2018-10-30 16:42:31.4000,1540932151.399901,0.04689240784189721,0.10119346352028585,-0.2633184548849306,-0.0753173828125,0.0857086181640625,-1.237945556640625,34.1104736328125,21.371078491210938,-75.0955810546875,,,,,,,,,,
0,2018-10-30 16:42:25.5930,00:36,60,0,2018-10-30 16:42:31.4170,1540932151.416626,0.4802534320122782,0.15105236650042234,-0.518226380731282,-0.025726318359375,0.0136260986328125,-1.0178070068359375,34.071319580078125,20.912506103515625,-75.19284057617188,,,,,,,,,,
0,2018-10-30 16:42:25.5930,00:36,60,0,2018-10-30 16:42:31.4320,1540932151.4320102,0.5559953313107858,0.13620018341715942,-0.5022000099234032,-0.025726318359375,0.0136260986328125,-1.0178070068359375,34.071319580078125,20.912506103515625,-75.19284057617188,,,,,,,,,,
0,2018-10-30 16:42:25.5930,00:36,60,0,2018-10-30 16:42:31.4490,1540932151.4486961,0.3954245607583112,0.04175437115080734,-0.3009558453065845,0.002288818359375,-0.0760650634765625,-0.93121337890625,33.89689636230469,20.55908203125,-74.9813232421875,,,,,,,,,,
0,2018-10-30 16:42:25.5930,00:36,60,0,2018-10-30 16:42:31.4650,1540932151.4653811,0.13810647412543814,-0.011978898583176413,-0.04074077203992318,-0.013580322265625,-0.1072845458984375,-0.82208251953125,33.946014404296875,19.927108764648438,-75.31442260742188,,,,,,,,,,
0,2018-10-30 16:42:25.5930,00:36,60,0,2018-10-30 16:42:31.4820,1540932151.48207,-0.12244389112246412,0.015807991598492343,0.127481526640458,-0.013580322265625,-0.1072845458984375,-0.82208251953125,33.88482666015625,19.939376831054688,-75.23921203613281,,,,,,,,,,
0,2018-10-30 16:42:25.5930,00:36,60,0,2018-10-30 16:42:31.4990,1540932151.498757,-0.34971592802095425,0.06878652147954764,0.13723934887450834,-0.0642547607421875,0.027557373046875,-0.833282470703125,33.91387939453125,19.7784423828125,-75.16557312011719,,,,,,,,,,
0,2018-10-30 16:42:25.5930,00:36,60,0,2018-10-30 16:42:31.5160,1540932151.515503,-0.46675147160168545,0.0337606268228255,-0.01912149662676893,-0.0642547607421875,0.027557373046875,-0.833282470703125,33.52278137207031,20.322784423828125,-74.77629089355469,,,,,,,,,,
0,2018-10-30 16:42:25.5930,00:36,60,0,2018-10-30 16:42:31.5320,1540932151.532064,-0.4512295035042676,-0.047703873026044355,-0.24089410587424542,-0.0774993896484375,0.0565338134765625,-0.88690185546875,33.38246154785156,20.118194580078125,-74.47927856445312,,,,,,,,,,
0,2018-10-30 16:42:25.5930,00:36,60,0,2018-10-30 16:42:31.5490,1540932151.548903,-0.33299127637525666,-0.17695480389475102,-0.3899317910100228,0.0053253173828125,-0.020538330078125,-0.947845458984375,33.38246154785156,20.118194580078125,-74.47927856445312,,,,,,,,,,
0,2018-10-30 16:42:25.5930,00:36,60,0,2018-10-30 16:42:31.5650,1540932151.565467,-0.20298986671136565,-0.24861860461602026,-0.362209083010625,0.0053253173828125,-0.020538330078125,-0.947845458984375,33.14556884765625,19.776931762695312,-74.34877014160156,,,,,,,,,,
0,2018-10-30 16:42:25.5930,00:36,60,0,2018-10-30 16:42:31.5820,1540932151.5820851,-0.13833124492144083,-0.1742120142880784,-0.19079498576378381,0.0412750244140625,-0.075286865234375,-0.903656005859375,32.930999755859375,19.974456787109375,-74.43115234375,,,,,,,,,,
0,2018-10-30 16:42:25.5930,00:36,60,0,2018-10-30 16:42:31.5990,1540932151.598799,-0.08148340829260942,-0.04014768606516253,-0.042864376693152365,-0.037384033203125,-0.1234130859375,-0.9322662353515625,32.827423095703125,19.52783203125,-74.84371948242188,,,,,,,,,,
0,2018-10-30 16:42:25.5930,00:36,60,0,2018-10-30 16:42:31.6150,1540932151.6153622,0.029929935910855517,0.036585974423290556,-0.024591895821900692,-0.037384033203125,-0.1234130859375,-0.9322662353515625,32.89186096191406,19.515884399414062,-74.52841186523438,,,,,,,,,,
0,2018-10-30 16:42:25.5930,00:36,60,0,2018-10-30 16:42:31.6330,1540932151.633319,0.1866609608036538,0.0841481672793427,-0.12309024031902636,-0.0580291748046875,-0.1053009033203125,-0.996673583984375,32.84161376953125,19.447341918945312,-74.84593200683594,,,,,,,,,,
0,2018-10-30 16:42:25.5930,00:36,60,0,2018-10-30 16:42:31.6500,1540932151.6501288,0.45739312353114703,0.1308517569999533,-0.28051448604357226,-0.0312042236328125,-0.131500244140625,-1.0033721923828125,32.84161376953125,19.447341918945312,-74.84593200683594,,,,,,,,,,
0,2018-10-30 16:42:25.5930,00:36,60,0,2018-10-30 16:42:31.6650,1540932151.665488,0.45739312353114703,0.1308517569999533,-0.28051448604357226,-0.0312042236328125,-0.131500244140625,-1.0033721923828125,32.92042541503906,18.654495239257812,-75.02728271484375,,,,,,,,,,
0,2018-10-30 16:42:25.5930,00:36,60,0,2018-10-30 16:42:31.6820,1540932151.68216,0.5203023148009988,0.09879129221703438,-0.2580810822851808,0.0340576171875,-0.2189178466796875,-0.9966583251953125,32.786651611328125,18.059402465820312,-75.05673217773438,,,,,,,,,,
0,2018-10-30 16:42:25.5930,00:36,60,0,2018-10-30 16:42:31.6990,1540932151.6988401,0.4482262567429853,-0.004070908042295124,-0.0579394663596549,0.042144775390625,-0.2405242919921875,-0.9810943603515625,32.85127258300781,17.347076416015625,-75.23585510253906,,,,,,,,,,
0,2018-10-30 16:42:25.5930,00:36,60,0,2018-10-30 16:42:31.7150,1540932151.715413,0.4482262567429853,-0.004070908042295124,-0.0579394663596549,0.042144775390625,-0.2405242919921875,-0.9810943603515625,32.67491149902344,16.993453979492188,-75.25860595703125,,,,,,,,,,
0,2018-10-30 16:42:25.5930,00:36,60,0,2018-10-30 16:42:31.7320,1540932151.732269,0.34316535068768633,-0.05211619832008764,0.03733325742516679,0.0275421142578125,-0.240692138671875,-0.974456787109375,32.51908874511719,16.869216918945312,-75.1156005859375,,,,,,,,,,
0,2018-10-30 16:42:25.5930,00:36,60,0,2018-10-30 16:42:31.7490,1540932151.748921,0.12511717222468566,0.014119281151273097,0.22593912477290545,0.0198516845703125,-0.2244873046875,-0.9807281494140625,32.51908874511719,16.869216918945312,-75.1156005859375,,,,,,,,,,
0,2018-10-30 16:42:25.5930,00:36,60,0,2018-10-30 16:42:31.7650,1540932151.765471,0.12511717222468566,0.014119281151273097,0.22593912477290545,0.028411865234375,-0.1843109130859375,-1.0157470703125,32.69889831542969,16.52276611328125,-75.19677734375,,,,,,,,,,
0,2018-10-30 16:42:25.5930,00:36,60,0,2018-10-30 16:42:31.7840,1540932151.7838778,-0.02981275682289203,-0.08609919909393475,0.2344196949481538,0.0184478759765625,-0.1403656005859375,-1.058624267578125,32.85420227050781,16.337692260742188,-74.80490112304688,,,,,,,,,,
0,2018-10-30 16:42:25.5930,00:36,60,0,2018-10-30 16:42:31.8000,1540932151.7996469,-0.13750566498351627,-0.2254134167737238,0.1689512058707359,0.004119873046875,-0.1208953857421875,-1.062469482421875,32.8819580078125,16.1766357421875,-74.887451171875,,,,,,,,,,
0,2018-10-30 16:42:25.5930,00:36,60,0,2018-10-30 16:42:31.8160,1540932151.8156161,-0.13750566498351627,-0.2254134167737238,0.1689512058707359,-0.0183563232421875,-0.1321563720703125,-1.0435791015625,32.59855651855469,16.076461791992188,-75.21885681152344,,,,,,,,,,
0,2018-10-30 16:42:25.5930,00:36,60,0,2018-10-30 16:42:31.8320,1540932151.832117,-0.544775433638282,-0.2539182951852779,0.16044719987789485,-0.014801025390625,-0.1540679931640625,-1.0164031982421875,32.35887145996094,16.435317993164062,-74.90628051757812,,,,,,,,,,
0,2018-10-30 16:42:25.5930,00:36,60,0,2018-10-30 16:42:31.8490,1540932151.849005,-0.8650639642460787,-0.19302405159618014,0.3073074845064235,0.04150390625,-0.1428985595703125,-1.00799560546875,32.31103515625,17.067413330078125,-74.4169921875,,,,,,,,,,
0,2018-10-30 16:42:25.5930,00:36,60,0,2018-10-30 16:42:31.8650,1540932151.865427,-0.8650639642460787,-0.19302405159618014,0.3073074845064235,0.1321868896484375,-0.0899658203125,-1.095733642578125,32.31103515625,17.067413330078125,-74.4169921875,,,,,,,,,,
0,2018-10-30 16:42:25.5930,00:36,60,0,2018-10-30 16:42:31.8820,1540932151.882132,-1.0703382905405143,-0.6229908769572551,0.6709195207793022,0.1756134033203125,-0.038604736328125,-1.200897216796875,32.29994201660156,17.457473754882812,-74.63723754882812,,,,,,,,,,
0,2018-10-30 16:42:25.5930,00:36,60,0,2018-10-30 16:42:31.8990,1540932151.8988628,-0.8696696350352616,-0.7737100820053086,0.8238185231795855,0.1468048095703125,0.0072784423828125,-1.2246246337890625,31.812271118164062,17.8651123046875,-74.4144287109375,,,,,,,,,,
0,2018-10-30 16:42:25.5930,00:36,60,0,2018-10-30 16:42:31.9160,1540932151.915623,-0.5844658549442778,-0.7138427533325453,0.8559495617313915,0.067718505859375,0.0522613525390625,-1.1675567626953125,31.636367797851562,18.211944580078125,-73.86466979980469,,,,,,,,,,
0,2018-10-30 16:42:25.5930,00:36,60,0,2018-10-30 16:42:31.9320,1540932151.932407,-0.3111030216920044,-0.4868183904154325,0.769423990546935,-0.0203399658203125,0.0924835205078125,-1.0850067138671875,31.317398071289062,18.663192749023438,-73.94329833984375,,,,,,,,,,
0,2018-10-30 16:42:25.5930,00:36,60,0,2018-10-30 16:42:31.9500,1540932151.950397,-0.12692812176593954,-0.2198972112078427,0.657268423347665,-0.0657501220703125,0.100189208984375,-1.018341064453125,31.4288330078125,18.719467163085938,-73.70095825195312,,,,,,,,,,
0,2018-10-30 16:42:25.5930,00:36,60,0,2018-10-30 16:42:31.9660,1540932151.966051,-0.0753765135969487,-0.027599936273145192,0.5910997892196652,-0.0709228515625,0.0929718017578125,-0.980712890625,31.4288330078125,18.719467163085938,-73.70095825195312,,,,,,,,,,
0,2018-10-30 16:42:25.5930,00:36,60,0,2018-10-30 16:42:31.9820,1540932151.9822721,-0.10735015932833103,0.03669756087296488,0.5472814682240466,-0.0681610107421875,0.0772705078125,-0.9756317138671875,31.432723999023438,18.7198486328125,-73.23237609863281,,,,,,,,,,
0,2018-10-30 16:42:25.5930,00:36,60,0,2018-10-30 16:42:32.0000,1540932152.000229,-0.14627465550482016,0.030847128590278806,0.4808901938289161,-0.090057373046875,0.065948486328125,-0.9852294921875,31.444961547851562,18.63916015625,-73.46888732910156,,,,,,,,,,
0,2018-10-30 16:42:25.5930,00:36,60,0,2018-10-30 16:42:32.0170,1540932152.016726,-0.17499418470023467,0.08889791508349902,0.36852823164516496,-0.1175384521484375,0.0734405517578125,-0.9698944091796875,31.796722412109375,18.33660888671875,-73.46099853515625,,,,,,,,,,
0,2018-10-30 16:42:25.5930,00:36,60,0,2018-10-30 16:42:32.0320,1540932152.0323482,-0.2072767571180662,0.2151242939022027,0.2562512243001874,-0.133148193359375,0.0802459716796875,-0.93865966796875,31.9718017578125,18.690093994140625,-73.59445190429688,,,,,,,,,,
0,2018-10-30 16:42:25.5930,00:36,60,0,2018-10-30 16:42:32.0490,1540932152.049127,-0.2495381941404246,0.3044275421036118,0.20497019329794858,-0.1137847900390625,0.07171630859375,-0.939666748046875,32.20623779296875,18.721878051757812,-73.42437744140625,,,,,,,,,,
0,2018-10-30 16:42:25.5930,00:36,60,0,2018-10-30 16:42:32.0660,1540932152.065669,-0.281380279713957,0.28415689146647366,0.21137802519678822,-0.079498291015625,0.05938720703125,-0.9600067138671875,32.20623779296875,18.721878051757812,-73.42437744140625,,,,,,,,,,
0,2018-10-30 16:42:25.5930,00:36,60,0,2018-10-30 16:42:32.0820,1540932152.0823212,-0.23073201578672106,0.18512005579693397,0.24229865703315323,-0.0522308349609375,0.045013427734375,-0.996612548828125,32.36778259277344,19.155929565429688,-73.47749328613281,,,,,,,,,,
0,2018-10-30 16:42:25.5930,00:36,60,0,2018-10-30 16:42:32.0990,1540932152.099008,-0.07803754415815589,0.055998820873314155,0.24852779082284857,-0.052642822265625,0.0245361328125,-1.02532958984375,32.70793151855469,18.93414306640625,-73.15501403808594,,,,,,,,,,
0,2018-10-30 16:42:25.5930,00:36,60,0,2018-10-30 16:42:32.1160,1540932152.115653,0.1024318334271727,-0.04403989599831334,0.21837681254151647,-0.053375244140625,0.0117340087890625,-1.01715087890625,32.60565185546875,18.487640380859375,-73.411376953125,,,,,,,,,,
0,2018-10-30 16:42:25.5930,00:36,60,0,2018-10-30 16:42:32.1330,1540932152.13252,0.23098128766475248,-0.06667889579285893,0.16156226542631102,-0.0720367431640625,-0.0083465576171875,-0.9657745361328125,32.74415588378906,18.382781982421875,-73.32969665527344,,,,,,,,,,
0,2018-10-30 16:42:25.5930,00:36,60,0,2018-10-30 16:42:32.1490,1540932152.149043,0.2756824465617325,-0.04190963344235896,0.08126742592820399,-0.0939483642578125,-0.03546142578125,-0.9043426513671875,32.66748046875,18.475433349609375,-73.40847778320312,,,,,,,,,,
0,2018-10-30 16:42:25.5930,00:36,60,0,2018-10-30 16:42:32.1660,1540932152.165761,0.2351222368437167,-0.0011880361622843482,0.0031545143111988577,-0.1008148193359375,-0.0613250732421875,-0.8635101318359375,32.629638671875,18.016952514648438,-73.34954833984375,,,,,,,,,,
0,2018-10-30 16:42:25.5930,00:36,60,0,2018-10-30 16:42:32.1820,1540932152.182349,0.15750334160892127,0.035357191896328,-0.02355326299676979,-0.087432861328125,-0.0910491943359375,-0.8502197265625,32.629638671875,18.016952514648438,-73.34954833984375,,,,,,,,,,
0,2018-10-30 16:42:25.5930,00:36,60,0,2018-10-30 16:42:32.1990,1540932152.199071,0.11784647613266033,0.08536762874248999,0.007572964875749322,-0.0640869140625,-0.1125030517578125,-0.8677825927734375,32.90470886230469,17.80706787109375,-73.42044067382812,,,,,,,,,,
0,2018-10-30 16:42:25.5930,00:36,60,0,2018-10-30 16:42:32.2160,1540932152.215815,0.14143835496523627,0.13474955957139326,0.044037499153332264,-0.0514373779296875,-0.1240386962890625,-0.90740966796875,33.05809020996094,17.621795654296875,-73.26289367675781,,,,,,,,,,
0,2018-10-30 16:42:25.5930,00:36,60,0,2018-10-30 16:42:32.2330,1540932152.2334208,0.19042720321724385,0.18936859668393738,0.06229772948356957,-0.04864501953125,-0.12689208984375,-0.948333740234375,33.166259765625,17.677719116210938,-73.41104125976562,,,,,,,,,,
0,2018-10-30 16:42:25.5930,00:36,60,0,2018-10-30 16:42:32.2490,1540932152.249113,0.23301487747313698,0.233284389375453,0.06769595701316018,-0.05657958984375,-0.1314239501953125,-0.9839324951171875,33.27134704589844,17.424102783203125,-73.33670043945312,,,,,,,,,,
0,2018-10-30 16:42:25.5930,00:36,60,0,2018-10-30 16:42:32.2660,1540932152.2656732,0.20031658560914412,0.24101527970384404,0.10626438855190573,-0.0538177490234375,-0.142974853515625,-1.0091705322265625,33.441986083984375,17.4678955078125,-73.40385437011719,,,,,,,,,,
0,2018-10-30 16:42:25.5930,00:36,60,0,2018-10-30 16:42:32.2830,1540932152.2825332,0.0704994666926866,0.2473394883444552,0.18875979805874527,-0.041595458984375,-0.1494140625,-1.038360595703125,33.441986083984375,17.4678955078125,-73.40385437011719,,,,,,,,,,
0,2018-10-30 16:42:25.5930,00:36,60,0,2018-10-30 16:42:32.2990,1540932152.299162,-0.09774387096030622,0.20854495442916193,0.2862008676031095,-0.041595458984375,-0.1494140625,-1.038360595703125,33.7454833984375,17.097030639648438,-73.47921752929688,,,,,,,,,,
0,2018-10-30 16:42:25.5930,00:36,60,0,2018-10-30 16:42:32.3160,1540932152.315753,-0.23947117890381608,0.18147072615519838,0.3643744992929684,-0.039093017578125,-0.122161865234375,-1.0712738037109375,34.056610107421875,17.036178588867188,-73.23037719726562,,,,,,,,,,
0,2018-10-30 16:42:25.5930,00:36,60,0,2018-10-30 16:42:32.3330,1540932152.332515,-0.28219760385250237,0.24443424591128776,0.4094386470465262,-0.0734710693359375,-0.0348968505859375,-1.1444549560546875,34.18402099609375,17.321365356445312,-73.36894226074219,,,,,,,,,,
0,2018-10-30 16:42:25.5930,00:36,60,0,2018-10-30 16:42:32.3490,1540932152.3492951,-0.21556824285591888,0.3725490722589666,0.3988720227894188,-0.0734710693359375,-0.0348968505859375,-1.1444549560546875,34.57818603515625,17.477752685546875,-72.87332153320312,,,,,,,,,,
0,2018-10-30 16:42:25.5930,00:36,60,0,2018-10-30 16:42:32.3660,1540932152.365866,-0.1567619175614432,0.4404173357946549,0.3261229839239423,-0.0924072265625,-0.0077056884765625,-1.180908203125,34.89372253417969,17.726593017578125,-72.69078063964844,,,,,,,,,,
0,2018-10-30 16:42:25.5930,00:36,60,0,2018-10-30 16:42:32.3830,1540932152.3825169,-0.21861782862016862,0.3291962718218937,0.15787538521320535,-0.1204681396484375,0.0125579833984375,-1.2250518798828125,34.89372253417969,17.726593017578125,-72.69078063964844,,,,,,,,,,
0,2018-10-30 16:42:25.5930,00:36,60,0,2018-10-30 16:42:32.3990,1540932152.399225,-0.38849261875694396,0.05575753847855298,-0.027680097421956578,-0.1204681396484375,0.0125579833984375,-1.2250518798828125,35.15901184082031,17.906890869140625,-72.82575988769531,,,,,,,,,,
0,2018-10-30 16:42:25.5930,00:36,60,0,2018-10-30 16:42:32.4160,1540932152.41603,-0.5498535492048451,-0.19848672762415065,-0.16502517379174106,-0.0932769775390625,0.088775634765625,-1.186370849609375,34.94512939453125,18.104476928710938,-72.83001708984375,,,,,,,,,,
0,2018-10-30 16:42:25.5930,00:36,60,0,2018-10-30 16:42:32.4330,1540932152.43266,-0.43391762483820756,-0.120187927363058,-0.2784678467458464,-0.10748291015625,0.142242431640625,-1.1591644287109375,34.7757568359375,18.060836791992188,-72.606689453125,,,,,,,,,,
0,2018-10-30 16:42:25.5930,00:36,60,0,2018-10-30 16:42:32.4500,1540932152.450266,-0.43391762483820756,-0.120187927363058,-0.2784678467458464,-0.10748291015625,0.142242431640625,-1.1591644287109375,34.85813903808594,18.27801513671875,-72.43798828125,,,,,,,,,,
0,2018-10-30 16:42:25.5930,00:36,60,0,2018-10-30 16:42:32.4660,1540932152.465929,-0.08149805567860485,0.09647593996531949,-0.39822194516733045,-0.1381988525390625,0.20648193359375,-1.1281585693359375,34.76922607421875,18.451339721679688,-72.28028869628906,,,,,,,,,,
0,2018-10-30 16:42:25.5930,00:36,60,0,2018-10-30 16:42:32.4830,1540932152.4826221,0.5634915971471408,0.46090237089954444,-0.574619882078146,-0.1033172607421875,0.2003936767578125,-1.0730438232421875,34.88848876953125,18.117218017578125,-72.20817565917969,,,,,,,,,,
0,2018-10-30 16:42:25.5930,00:36,60,0,2018-10-30 16:42:32.4990,1540932152.499244,0.5634915971471408,0.46090237089954444,-0.574619882078146,-0.1033172607421875,0.2003936767578125,-1.0730438232421875,34.88848876953125,18.117218017578125,-72.20817565917969,,,,,,,,,,
0,2018-10-30 16:42:25.5930,00:36,60,0,2018-10-30 16:42:32.5160,1540932152.515899,0.618617167499018,0.4991783873505993,-0.5413892243122462,-0.049652099609375,0.1433868408203125,-0.982025146484375,35.3414306640625,17.560684204101562,-72.59454345703125,,,,,,,,,,
0,2018-10-30 16:42:25.5930,00:36,60,0,2018-10-30 16:42:32.5330,1540932152.532687,0.4517954252359095,0.3772876347865446,-0.49438150159514854,-0.0499114990234375,0.121673583984375,-0.9564361572265625,35.39625549316406,17.238510131835938,-72.83772277832031,,,,,,,,,,
0,2018-10-30 16:42:25.5930,00:36,60,0,2018-10-30 16:42:32.5490,1540932152.549193,0.4517954252359095,0.3772876347865446,-0.49438150159514854,-0.0453033447265625,0.1075592041015625,-0.9351959228515625,35.46722412109375,16.8360595703125,-72.84884643554688,,,,,,,,,,
0,2018-10-30 16:42:25.5930,00:36,60,0,2018-10-30 16:42:32.5660,1540932152.5658689,0.1772770463866506,0.22426506171168165,-0.5180631289564601,-0.0219573974609375,0.0977935791015625,-0.917724609375,35.60948181152344,17.04083251953125,-72.91154479980469,,,,,,,,,,
0,2018-10-30 16:42:25.5930,00:36,60,0,2018-10-30 16:42:32.5830,1540932152.582666,0.086678969263245,0.12664822353537222,-0.503169666876301,0.007110595703125,0.0866546630859375,-0.9206390380859375,35.42463684082031,17.077529907226562,-72.84217834472656,,,,,,,,,,
0,2018-10-30 16:42:25.5930,00:36,60,0,2018-10-30 16:42:32.5990,1540932152.59932,0.086678969263245,0.12664822353537222,-0.503169666876301,0.0189208984375,0.072540283203125,-0.933013916015625,35.42463684082031,17.077529907226562,-72.84217834472656,,,,,,,,,,
0,2018-10-30 16:42:25.5930,00:36,60,0,2018-10-30 16:42:32.6160,1540932152.615909,0.1566098510631997,0.059861736034474096,-0.4690013100905844,0.0171051025390625,0.0583343505859375,-0.914764404296875,35.4388427734375,16.997039794921875,-72.84439086914062,,,,,,,,,,
0,2018-10-30 16:42:25.5930,00:36,60,0,2018-10-30 16:42:32.6330,1540932152.632623,0.2596885663191526,0.2620521217865979,-0.428083970470389,0.0079345703125,0.0367584228515625,-0.86627197265625,35.592193603515625,16.811782836914062,-72.68684387207031,,,,,,,,,,
0,2018-10-30 16:42:25.5930,00:36,60,0,2018-10-30 16:42:32.6490,1540932152.649331,0.2596885663191526,0.2620521217865979,-0.428083970470389,-0.02081298828125,-0.0076904296875,-0.836639404296875,35.72175598144531,16.396774291992188,-73.08554077148438,,,,,,,,,,
0,2018-10-30 16:42:25.5930,00:36,60,0,2018-10-30 16:42:32.6670,1540932152.666957,0.3910708250082497,0.8020647581313822,-0.2743162449225219,-0.037841796875,-0.0421295166015625,-0.818817138671875,36.12687683105469,16.472366333007812,-72.98263549804688,,,,,,,,,,
0,2018-10-30 16:42:25.5930,00:36,60,0,2018-10-30 16:42:32.6840,1540932152.683857,0.37350141866477893,1.0638929080703046,-0.251500943863813,-0.0506134033203125,-0.049163818359375,-0.809844970703125,36.71113586425781,16.201400756835938,-73.03900146484375,,,,,,,,,,
0,2018-10-30 16:42:25.5930,00:36,60,0,2018-10-30 16:42:32.7000,1540932152.7004042,0.35398151313893417,1.316455121628514,-0.341137087201482,-0.0638885498046875,-0.040679931640625,-0.830108642578125,36.71113586425781,16.201400756835938,-73.03900146484375,,,,,,,,,,
0,2018-10-30 16:42:25.5930,00:36,60,0,2018-10-30 16:42:32.7170,1540932152.716992,0.3547690098732706,1.2511248506116712,-0.5050597123019303,0.0009765625,-0.0279998779296875,-0.906524658203125,37.488555908203125,16.203842163085938,-72.76242065429688,,,,,,,,,,
0,2018-10-30 16:42:25.5930,00:36,60,0,2018-10-30 16:42:32.7330,1540932152.7326589,0.3884454808056496,0.7690335711311294,-0.6630791745301089,0.12249755859375,-0.0447540283203125,-1.0473175048828125,38.42329406738281,15.6302490234375,-72.96711730957031,,,,,,,,,,
0,2018-10-30 16:42:25.5930,00:36,60,0,2018-10-30 16:42:32.7500,1540932152.7495131,0.4263739547344491,0.08759403141379622,-0.7485269644214102,0.2368011474609375,-0.096160888671875,-1.153564453125,38.45167541503906,15.469253540039062,-72.97157287597656,,,,,,,,,,
0,2018-10-30 16:42:25.5930,00:36,60,0,2018-10-30 16:42:32.7660,1540932152.7658958,0.39695401417234377,-0.4475716517470438,-0.7363296866288473,0.292999267578125,-0.155609130859375,-1.16217041015625,38.16583251953125,15.0595703125,-73.00238037109375,,,,,,,,,,
0,2018-10-30 16:42:25.5930,00:36,60,0,2018-10-30 16:42:32.7830,1540932152.782659,0.3455462167022172,-0.630045857000984,-0.6926370668366804,0.2732391357421875,-0.1989593505859375,-1.0867919921875,37.457244873046875,15.354888916015625,-73.02992248535156,,,,,,,,,,
0,2018-10-30 16:42:25.5930,00:36,60,0,2018-10-30 16:42:32.8010,1540932152.800919,0.30001148838404235,-0.5249625803925284,-0.6250321899328009,0.239044189453125,-0.22259521484375,-1.003448486328125,37.025054931640625,15.4404296875,-72.97219848632812,,,,,,,,,,
0,2018-10-30 16:42:25.5930,00:36,60,0,2018-10-30 16:42:32.8170,1540932152.816827,0.24147014761802957,-0.33239685881995096,-0.4941354255104252,0.2277679443359375,-0.2466888427734375,-0.961669921875,37.025054931640625,15.4404296875,-72.97219848632812,,,,,,,,,,
0,2018-10-30 16:42:25.5930,00:36,60,0,2018-10-30 16:42:32.8330,1540932152.832662,0.18269551394052583,-0.1508763315523681,-0.30542569488017346,0.2257232666015625,-0.2720794677734375,-0.9575653076171875,37.0477294921875,14.9696044921875,-73.06655883789062,,,,,,,,,,
0,2018-10-30 16:42:25.5930,00:36,60,0,2018-10-30 16:42:32.8490,1540932152.849266,0.10336660296979051,-0.013675864829774904,-0.07393121607336271,0.233123779296875,-0.2821197509765625,-0.9669342041015625,36.87513732910156,14.925613403320312,-73.23370361328125,,,,,,,,,,
0,2018-10-30 16:42:25.5930,00:36,60,0,2018-10-30 16:42:32.8660,1540932152.865859,-0.027269970614084375,0.04729134937319108,0.14034779049884882,0.2443084716796875,-0.268585205078125,-0.9765472412109375,37.02784729003906,14.740280151367188,-73.15422058105469,,,,,,,,,,
0,2018-10-30 16:42:25.5930,00:36,60,0,2018-10-30 16:42:32.8830,1540932152.882691,-0.19186211441257855,0.06567568301022608,0.2657009187961155,0.234405517578125,-0.2378692626953125,-0.98541259765625,36.94331359863281,15.223297119140625,-73.06278991699219,,,,,,,,,,
0,2018-10-30 16:42:25.5930,00:36,60,0,2018-10-30 16:42:32.8990,1540932152.899328,-0.34759445389659716,0.10493254169075711,0.289345794534384,0.2058258056640625,-0.2016448974609375,-0.997955322265625,37.197662353515625,15.484405517578125,-72.80503845214844,,,,,,,,,,
0,2018-10-30 16:42:25.5930,00:36,60,0,2018-10-30 16:42:32.9160,1540932152.916064,-0.4393222439544143,0.2065611657331619,0.24987135559279353,0.16656494140625,-0.173797607421875,-1.0341644287109375,37.197662353515625,15.484405517578125,-72.80503845214844,,,,,,,,,,
0,2018-10-30 16:42:25.5930,00:36,60,0,2018-10-30 16:42:32.9330,1540932152.932627,-0.5038983077505467,0.28194913092279794,0.21571231987089218,0.1805419921875,-0.1321563720703125,-1.0671539306640625,37.435882568359375,15.8258056640625,-72.77937316894531,,,,,,,,,,
0,2018-10-30 16:42:25.5930,00:36,60,0,2018-10-30 16:42:32.9490,1540932152.949341,-0.5497286469497203,0.31847198842825364,0.11831998617447642,0.192138671875,-0.0926513671875,-1.085418701171875,37.638824462890625,15.708999633789062,-72.38238525390625,,,,,,,,,,
0,2018-10-30 16:42:25.5930,00:36,60,0,2018-10-30 16:42:32.9660,1540932152.9660568,-0.5782750706742796,0.2962806660129504,0.05618950320736383,0.2224884033203125,-0.0499114990234375,-1.0756988525390625,38.06562805175781,16.323348999023438,-72.57048034667969,,,,,,,,,,
0,2018-10-30 16:42:25.5930,00:36,60,0,2018-10-30 16:42:32.9830,1540932152.982664,-0.5868986526000652,0.19315214964461294,0.17064657422068033,0.28057861328125,-0.0329742431640625,-1.07781982421875,38.18342590332031,16.689483642578125,-72.16015625,,,,,,,,,,
0,2018-10-30 16:42:25.5930,00:36,60,0,2018-10-30 16:42:32.9990,1540932152.9994202,-0.5241223530686084,0.08774689686036677,0.4125161960022218,0.3093109130859375,-0.023651123046875,-1.0709075927734375,38.1749267578125,17.079803466796875,-72.06802368164062,,,,,,,,,,
0,2018-10-30 16:42:25.5930,00:36,60,0,2018-10-30 16:42:33.0170,1540932153.017143,-0.40316903320826164,0.09349746060217487,0.5774068801589138,0.2638702392578125,0.0013580322265625,-1.0399169921875,38.1749267578125,17.079803466796875,-72.06802368164062,,,,,,,,,,
0,2018-10-30 16:42:25.5930,00:36,60,0,2018-10-30 16:42:33.0330,1540932153.032722,-0.310620456902482,0.19081282894308735,0.6331894523517135,0.2047119140625,0.043182373046875,-0.9849853515625,38.43434143066406,17.650665283203125,-71.79847717285156,,,,,,,,,,
0,2018-10-30 16:42:25.5930,00:36,60,0,2018-10-30 16:42:33.0490,1540932153.049398,-0.31082312346143703,0.28588501669782607,0.6611491816881284,0.1923370361328125,0.09033203125,-0.9406890869140625,38.87632751464844,17.174957275390625,-71.79216003417969,,,,,,,,,,
0,2018-10-30 16:42:25.5930,00:36,60,0,2018-10-30 16:42:33.0660,1540932153.066109,-0.34574755168062715,0.27429254278882015,0.6686393222539763,0.1567535400390625,0.111572265625,-0.9755859375,39.15711975097656,17.274856567382812,-71.77314758300781,,,,,,,,,,
0,2018-10-30 16:42:25.5930,00:36,60,0,2018-10-30 16:42:33.0830,1540932153.082686,-0.3801345539918393,0.19586218236987757,0.6192912135709171,0.1567535400390625,0.111572265625,-0.9755859375,39.32122802734375,17.70916748046875,-71.51387023925781,,,,,,,,,,
0,2018-10-30 16:42:25.5930,00:36,60,0,2018-10-30 16:42:33.1000,1540932153.0995278,-0.45651960669360103,0.12559041595039275,0.5239162244002363,0.1439666748046875,0.1239166259765625,-0.976959228515625,39.4989013671875,18.06292724609375,-71.33491516113281,,,,,,,,,,
0,2018-10-30 16:42:25.5930,00:36,60,0,2018-10-30 16:42:33.1180,1540932153.1175919,-0.5747860633301669,0.08813465311508231,0.43715869188483397,0.166290283203125,0.12384033203125,-0.996673583984375,39.46968078613281,18.924240112304688,-70.91413879394531,,,,,,,,,,
0,2018-10-30 16:42:25.5930,00:36,60,0,2018-10-30 16:42:33.1340,1540932153.1343079,-0.6926229520829029,-0.00040506680180105213,0.4113771620039949,0.166290283203125,0.12384033203125,-0.996673583984375,39.46968078613281,18.924240112304688,-70.91413879394531,,,,,,,,,,
0,2018-10-30 16:42:25.5930,00:36,60,0,2018-10-30 16:42:33.1500,1540932153.149667,-0.7386791273425153,-0.17534652091245218,0.4518652000564695,0.1997833251953125,0.1175994873046875,-1.060302734375,39.626800537109375,19.048583984375,-70.90097045898438,,,,,,,,,,
0,2018-10-30 16:42:25.5930,00:36,60,0,2018-10-30 16:42:33.1660,1540932153.166172,-0.6353386233514076,-0.3863120224563871,0.4869185252724195,0.1641387939453125,0.094696044921875,-1.163848876953125,39.81294250488281,19.012008666992188,-70.81414794921875,,,,,,,,,,
0,2018-10-30 16:42:25.5930,00:36,60,0,2018-10-30 16:42:33.1830,1540932153.182792,-0.34391076947679955,-0.5738931054166633,0.44378250614807907,0.1641387939453125,0.094696044921875,-1.163848876953125,39.480438232421875,19.543792724609375,-70.81242370605469,,,,,,,,,,
