SessionID,SessionDate,SessionDuration,SessionFrequency,RecordID,Timestamp,timeIntervalSince1970,GyroX,GyroY,GyroZ,AccX,AccY,AccZ,MagX,MagY,MagZ,WatchTimestamp,WatchtImeIntervalSince1970,WatchGyroX,WatchGyroY,WatchGyroZ,WatchAccX,WatchAccY,WatchAccZ
0,2018-10-30 16:45:07.9670,00:43,60,0,2018-10-30 16:45:07.9840,1540932307.984003,0.03445384765457312,-0.44775487723004126,-0.3614410273522461,-0.0368804931640625,-0.3095245361328125,-0.9826202392578125,37.399688720703125,16.8505859375,-69.62081909179688,,,,,,,,,,
0,2018-10-30 16:45:07.9670,00:43,60,0,2018-10-30 16:45:08.0100,1540932308.009856,-0.022245118269322867,-0.42659153499550856,-0.37853505944113774,-0.0186767578125,-0.3405914306640625,-0.90203857421875,37.17225646972656,17.1287841796875,-69.54478454589844,,,,,,,,,,
0,2018-10-30 16:45:07.9670,00:43,60,0,2018-10-30 16:45:08.0270,1540932308.02663,-0.4526787957694888,-0.5257998782392493,-0.2318457497545922,0.006561279296875,-0.4509124755859375,-0.7902374267578125,36.75358581542969,17.133773803710938,-69.56736755371094,,,,,,,,,,
0,2018-10-30 16:45:07.9670,00:43,60,0,2018-10-30 16:45:08.0440,1540932308.044039,-0.621876344041057,-0.41369544373290884,-0.00036059201159672886,0.0124053955078125,-0.485137939453125,-0.7523193359375,36.67820739746094,17.226531982421875,-69.48997497558594,,,,,,,,,,
0,2018-10-30 16:45:07.9670,00:43,60,0,2018-10-30 16:45:08.0610,1540932308.060771,-0.621876344041057,-0.41369544373290884,-0.00036059201159672886,-0.0390472412109375,-0.46429443359375,-0.7775115966796875,36.334747314453125,17.839126586914062,-69.09555053710938,,,,,,,,,,
0,2018-10-30 16:45:07.9670,00:43,60,0,2018-10-30 16:45:08.0770,1540932308.0772219,-0.4901694460150792,-0.05971845796782783,0.1521067119759847,-0.089569091796875,-0.4151153564453125,-0.8179931640625,36.334747314453125,17.839126586914062,-69.09555053710938,,,,,,,,,,
0,2018-10-30 16:45:07.9670,00:43,60,0,2018-10-30 16:45:08.0940,1540932308.093776,-0.22771731743275136,-0.09852391084359043,0.029917419053732144,-0.12115478515625,-0.4031982421875,-0.9089202880859375,36.35205078125,18.068206787109375,-69.32025146484375,,,,,,,,,,
0,2018-10-30 16:45:07.9670,00:43,60,0,2018-10-30 16:45:08.1100,1540932308.110493,-0.22771731743275136,-0.09852391084359043,0.029917419053732144,-0.140472412109375,-0.4169921875,-0.816925048828125,36.401641845703125,18.136672973632812,-69.08084106445312,,,,,,,,,,
0,2018-10-30 16:45:07.9670,00:43,60,0,2018-10-30 16:45:08.1270,1540932308.1272779,-0.1287414681521745,0.1908386616056611,-0.08004823078116571,-0.14080810546875,-0.466644287109375,-0.7751617431640625,36.3719482421875,18.297531127929688,-69.23255920410156,,,,,,,,,,
0,2018-10-30 16:45:07.9670,00:43,60,0,2018-10-30 16:45:08.1440,1540932308.143865,-0.5091644424900694,0.2256682812900444,-0.032795763559889786,-0.1023406982421875,-0.514678955078125,-0.7071685791015625,36.48272705078125,18.353744506835938,-69.06834411621094,,,,,,,,,,
0,2018-10-30 16:45:07.9670,00:43,60,0,2018-10-30 16:45:08.1610,1540932308.160511,-0.9545027673469727,0.45622825687034635,0.18069734417463937,-0.0468292236328125,-0.50909423828125,-0.6732330322265625,36.86775207519531,18.900360107421875,-68.55868530273438,,,,,,,,,,
0,2018-10-30 16:45:07.9670,00:43,60,0,2018-10-30 16:45:08.1770,1540932308.177176,-1.0943754499073515,0.7617535539752888,0.3888550749813038,-0.04296875,-0.428924560546875,-0.7765045166015625,36.86775207519531,18.900360107421875,-68.55868530273438,,,,,,,,,,
0,2018-10-30 16:45:07.9670,00:43,60,0,2018-10-30 16:45:08.1940,1540932308.194048,-0.7846372982740126,0.8527220768063244,0.4285146036186548,-0.0432281494140625,-0.3265533447265625,-0.988128662109375,37.31135559082031,19.434478759765625,-68.43661499023438,,,,,,,,,,
0,2018-10-30 16:45:07.9670,00:43,60,0,2018-10-30 16:45:08.2120,1540932308.2117062,-0.2980090575604118,0.7802225761349884,0.3501351095765327,-0.0488128662109375,-0.2512664794921875,-1.1475372314453125,37.7647705078125,19.578414916992188,-68.25045776367188,,,,,,,,,,
0,2018-10-30 16:45:07.9670,00:43,60,0,2018-10-30 16:45:08.2280,1540932308.2284331,0.05136385531214025,0.5558632385207178,0.16879860674027433,-0.029571533203125,-0.2071990966796875,-1.2034149169921875,38.1884765625,19.8831787109375,-68.216064453125,,,,,,,,,,
0,2018-10-30 16:45:07.9670,00:43,60,0,2018-10-30 16:45:08.2440,1540932308.243948,0.044971469747623054,0.16958237504908466,-0.050132143307978605,-0.0070648193359375,-0.204437255859375,-1.1673126220703125,38.69230651855469,19.395248413085938,-68.20683288574219,,,,,,,,,,
0,2018-10-30 16:45:07.9670,00:43,60,0,2018-10-30 16:45:08.2610,1540932308.260591,-0.2213592866462962,-0.1548692089747239,-0.2303730216717784,-0.0024261474609375,-0.2253265380859375,-1.0836639404296875,38.21687316894531,19.722183227539062,-68.22052001953125,,,,,,,,,,
0,2018-10-30 16:45:07.9670,00:43,60,0,2018-10-30 16:45:08.2770,1540932308.277205,-0.4457540443030647,-0.39322026232405266,-0.40409261747430114,-0.0147247314453125,-0.24432373046875,-1.049224853515625,38.21687316894531,19.722183227539062,-68.22052001953125,,,,,,,,,,
0,2018-10-30 16:45:07.9670,00:43,60,0,2018-10-30 16:45:08.2940,1540932308.294117,-0.5912009893410882,-0.4236213114317432,-0.5668660885643803,-0.0111236572265625,-0.243377685546875,-1.0361175537109375,37.9752197265625,20.080841064453125,-68.14225769042969,,,,,,,,,,
0,2018-10-30 16:45:07.9670,00:43,60,0,2018-10-30 16:45:08.3110,1540932308.310742,-0.6363434340306944,-0.3157145514355856,-0.6652413950191443,-0.0005035400390625,-0.248870849609375,-1.0494232177734375,37.29502868652344,20.215164184570312,-68.17425537109375,,,,,,,,,,
0,2018-10-30 16:45:07.9670,00:43,60,0,2018-10-30 16:45:08.3280,1540932308.327622,-0.504243187111712,-0.18060546511703163,-0.6886654947030452,0.0030364990234375,-0.278533935546875,-1.08758544921875,37.19581604003906,20.4693603515625,-67.54570007324219,,,,,,,,,,
0,2018-10-30 16:45:07.9670,00:43,60,0,2018-10-30 16:45:08.3440,1540932308.344177,-0.2615679591004215,-0.15923359736914575,-0.6651385970010671,0.013031005859375,-0.318634033203125,-1.1340789794921875,36.87309265136719,20.610992431640625,-67.47991943359375,,,,,,,,,,
0,2018-10-30 16:45:07.9670,00:43,60,0,2018-10-30 16:45:08.3610,1540932308.360705,-0.11550049752840953,-0.1965857632380521,-0.6009681326389539,0.036376953125,-0.35601806640625,-1.1284637451171875,36.501434326171875,20.684173583984375,-67.57546997070312,,,,,,,,,,
0,2018-10-30 16:45:07.9670,00:43,60,0,2018-10-30 16:45:08.3770,1540932308.3772202,-0.14161492254550853,-0.24880928695006993,-0.46181423725678755,0.04962158203125,-0.39996337890625,-1.0975189208984375,36.501434326171875,20.684173583984375,-67.57546997070312,,,,,,,,,,
0,2018-10-30 16:45:07.9670,00:43,60,0,2018-10-30 16:45:08.3940,1540932308.394021,-0.2461024500181134,-0.32854805841256846,-0.2862661150498164,0.0365447998046875,-0.426055908203125,-1.0745697021484375,36.44087219238281,20.696533203125,-67.42221069335938,,,,,,,,,,
0,2018-10-30 16:45:07.9670,00:43,60,0,2018-10-30 16:45:08.4110,1540932308.4106622,-0.31746424827176767,-0.3727360261674902,-0.1545874465313935,0.0238037109375,-0.3970947265625,-1.0675048828125,35.95188903808594,21.104019165039062,-67.35557556152344,,,,,,,,,,
0,2018-10-30 16:45:07.9670,00:43,60,0,2018-10-30 16:45:08.4290,1540932308.429141,-0.27029833378591933,-0.38857118200910135,-0.09465007672196117,-0.0068511962890625,-0.3597869873046875,-1.0734405517578125,35.76509094238281,21.140533447265625,-67.52047729492188,,,,,,,,,,
0,2018-10-30 16:45:07.9670,00:43,60,0,2018-10-30 16:45:08.4460,1540932308.446152,-0.11744061038253226,-0.39114139877713683,-0.08933573876670804,-0.0542449951171875,-0.310791015625,-1.0897979736328125,35.565399169921875,21.257659912109375,-67.5269775390625,,,,,,,,,,
0,2018-10-30 16:45:07.9670,00:43,60,0,2018-10-30 16:45:08.4620,1540932308.461961,0.031132619459135303,-0.3969795805188085,-0.06796147417384109,-0.0542449951171875,-0.310791015625,-1.0897979736328125,35.162872314453125,21.182327270507812,-67.31752014160156,,,,,,,,,,
0,2018-10-30 16:45:07.9670,00:43,60,0,2018-10-30 16:45:08.4770,1540932308.477137,0.14051210753810672,-0.42934471093043247,-0.0808780717768344,-0.0781097412109375,-0.29644775390625,-1.071258544921875,35.162872314453125,21.182327270507812,-67.31752014160156,,,,,,,,,,
0,2018-10-30 16:45:07.9670,00:43,60,0,2018-10-30 16:45:08.4940,1540932308.493829,0.16370371325884375,-0.44445708485219615,-0.14408314024379396,-0.1143646240234375,-0.27813720703125,-1.0242767333984375,34.9716796875,20.909149169921875,-67.41615295410156,,,,,,,,,,
0,2018-10-30 16:45:07.9670,00:43,60,0,2018-10-30 16:45:08.5100,1540932308.510464,0.07903649588304461,-0.4994939719397737,-0.24264992798093468,-0.12420654296875,-0.2612762451171875,-0.98101806640625,34.763671875,20.7161865234375,-67.824951171875,,,,,,,,,,
0,2018-10-30 16:45:07.9670,00:43,60,0,2018-10-30 16:45:08.5270,1540932308.527128,-0.09191367870190474,-0.5236275377380717,-0.2886855969001534,-0.125335693359375,-0.2578887939453125,-0.9445648193359375,34.361785888671875,20.640945434570312,-67.53736877441406,,,,,,,,,,
0,2018-10-30 16:45:07.9670,00:43,60,0,2018-10-30 16:45:08.5440,1540932308.543807,-0.22633087576925612,-0.571095454691535,-0.26729455439241895,-0.1177520751953125,-0.2597808837890625,-0.9528350830078125,34.17498779296875,20.677444458007812,-67.7022705078125,,,,,,,,,,
0,2018-10-30 16:45:07.9670,00:43,60,0,2018-10-30 16:45:08.5610,1540932308.560539,-0.2083625278944915,-0.6698100478691752,-0.23850738090531642,-0.107757568359375,-0.2430419921875,-1.0242462158203125,33.525787353515625,20.651031494140625,-67.42636108398438,,,,,,,,,,
0,2018-10-30 16:45:07.9670,00:43,60,0,2018-10-30 16:45:08.5770,1540932308.577291,-0.12304070552275088,-0.801285250880316,-0.2933040508625688,-0.1112060546875,-0.171051025390625,-1.0912322998046875,32.935821533203125,20.612152099609375,-67.45988464355469,,,,,,,,,,
0,2018-10-30 16:45:07.9670,00:43,60,0,2018-10-30 16:45:08.5940,1540932308.593818,-0.15843784483543008,-1.1140767167034307,-0.42753908771135873,-0.1112060546875,-0.171051025390625,-1.0912322998046875,32.935821533203125,20.612152099609375,-67.45988464355469,,,,,,,,,,
0,2018-10-30 16:45:07.9670,00:43,60,0,2018-10-30 16:45:08.6110,1540932308.610594,-0.32254928805716493,-1.545665673484473,-0.5683148481973833,-0.1063232421875,-0.1798248291015625,-1.111541748046875,31.91363525390625,20.6588134765625,-67.43569946289062,,,,,,,,,,
0,2018-10-30 16:45:07.9670,00:43,60,0,2018-10-30 16:45:08.6270,1540932308.627245,-0.5565300940576737,-1.8795304666972754,-0.6361346422012322,-0.1053924560546875,-0.277801513671875,-1.0742340087890625,30.913986206054688,20.935089111328125,-67.01144409179688,,,,,,,,,,
0,2018-10-30 16:45:07.9670,00:43,60,0,2018-10-30 16:45:08.6440,1540932308.6438599,-0.7292430149681465,-1.8349938911556625,-0.5396605664486758,-0.1053924560546875,-0.277801513671875,-1.0742340087890625,30.001937866210938,21.037872314453125,-66.90110778808594,,,,,,,,,,
0,2018-10-30 16:45:07.9670,00:43,60,0,2018-10-30 16:45:08.6610,1540932308.6606278,-0.6896402116620142,-1.3832464028193743,-0.2724682774421159,-0.10003662109375,-0.30364990234375,-1.0694122314453125,29.310806274414062,21.253021240234375,-66.54039001464844,,,,,,,,,,
0,2018-10-30 16:45:07.9670,00:43,60,0,2018-10-30 16:45:08.6780,1540932308.678437,-0.26907594284557296,0.18585855036721294,0.42007185033088557,-0.088653564453125,-0.2050933837890625,-1.0931854248046875,29.302291870117188,21.643325805664062,-66.44825744628906,,,,,,,,,,
0,2018-10-30 16:45:07.9670,00:43,60,0,2018-10-30 16:45:08.6940,1540932308.6938648,-0.26907594284557296,0.18585855036721294,0.42007185033088557,-0.088653564453125,-0.2050933837890625,-1.0931854248046875,29.302291870117188,21.643325805664062,-66.44825744628906,,,,,,,,,,
0,2018-10-30 16:45:07.9670,00:43,60,0,2018-10-30 16:45:08.7110,1540932308.710659,-0.11937273375338475,0.7891247247107962,0.6702907484459345,-0.0792236328125,-0.05133056640625,-1.1258544921875,30.0283203125,21.267837524414062,-66.032470703125,,,,,,,,,,
0,2018-10-30 16:45:07.9670,00:43,60,0,2018-10-30 16:45:08.7270,1540932308.7272859,0.09774546885696027,0.6925337361863853,0.7718511955644333,-0.0745086669921875,0.0324554443359375,-1.1212005615234375,30.61505126953125,21.306381225585938,-66.38938903808594,,,,,,,,,,
0,2018-10-30 16:45:07.9670,00:43,60,0,2018-10-30 16:45:08.7440,1540932308.743977,0.09774546885696027,0.6925337361863853,0.7718511955644333,-0.0745086669921875,0.0324554443359375,-1.1212005615234375,31.050369262695312,21.530410766601562,-66.66961669921875,,,,,,,,,,
0,2018-10-30 16:45:07.9670,00:43,60,0,2018-10-30 16:45:08.7610,1540932308.7607331,0.24591336558071777,0.47679664891735535,0.5402432660951851,-0.0999603271484375,0.0925445556640625,-1.06585693359375,31.38287353515625,20.998611450195312,-66.67132568359375,,,,,,,,,,
0,2018-10-30 16:45:07.9670,00:43,60,0,2018-10-30 16:45:08.7770,1540932308.777499,0.4246668684757083,-0.11374707226670136,0.10684362608899796,-0.118255615234375,0.0483551025390625,-1.0210113525390625,31.460205078125,20.906051635742188,-66.51445007324219,,,,,,,,,,
0,2018-10-30 16:45:07.9670,00:43,60,0,2018-10-30 16:45:08.7940,1540932308.793944,0.4246668684757083,-0.11374707226670136,0.10684362608899796,-0.118255615234375,0.0483551025390625,-1.0210113525390625,31.460205078125,20.906051635742188,-66.51445007324219,,,,,,,,,,
0,2018-10-30 16:45:07.9670,00:43,60,0,2018-10-30 16:45:08.8110,1540932308.8106608,0.36401790202300677,-0.19706779539535643,-0.008897621201954736,-0.164093017578125,-0.0582122802734375,-0.8503875732421875,31.17681884765625,20.805862426757812,-66.84584045410156,,,,,,,,,,
0,2018-10-30 16:45:07.9670,00:43,60,0,2018-10-30 16:45:08.8270,1540932308.8273149,0.212480041255863,-0.04970310805636684,0.018092184865453304,-0.1817169189453125,-0.1099853515625,-0.795684814453125,31.324462890625,20.310760498046875,-66.77816772460938,,,,,,,,,,
0,2018-10-30 16:45:07.9670,00:43,60,0,2018-10-30 16:45:08.8440,1540932308.843931,0.212480041255863,-0.04970310805636684,0.018092184865453304,-0.1924591064453125,-0.1443939208984375,-0.800689697265625,31.241455078125,20.093536376953125,-67.02496337890625,,,,,,,,,,
0,2018-10-30 16:45:07.9670,00:43,60,0,2018-10-30 16:45:08.8610,1540932308.8606238,0.002832538135408278,0.061860172116469554,-0.05882177162879815,-0.1979217529296875,-0.1509857177734375,-0.824798583984375,31.025588989257812,20.290939331054688,-67.2635498046875,,,,,,,,,,
0,2018-10-30 16:45:07.9670,00:43,60,0,2018-10-30 16:45:08.8780,1540932308.877514,0.004086620692726591,0.07283559160090411,-0.10164300511229123,-0.1910552978515625,-0.156707763671875,-0.8810272216796875,31.191848754882812,20.025039672851562,-67.26438903808594,,,,,,,,,,
0,2018-10-30 16:45:07.9670,00:43,60,0,2018-10-30 16:45:08.8940,1540932308.893961,0.004086620692726591,0.07283559160090411,-0.10164300511229123,-0.195465087890625,-0.1756744384765625,-0.959014892578125,31.191848754882812,20.025039672851562,-67.26438903808594,,,,,,,,,,
0,2018-10-30 16:45:07.9670,00:43,60,0,2018-10-30 16:45:08.9120,1540932308.911917,0.4324009545974074,0.10531497162329248,-0.05565900151822005,-0.210052490234375,-0.2069091796875,-0.98162841796875,31.036041259765625,19.900833129882812,-67.12136840820312,,,,,,,,,,
0,2018-10-30 16:45:07.9670,00:43,60,0,2018-10-30 16:45:08.9270,1540932308.927341,0.486060987401414,0.21278950057453022,-0.012704876296332013,-0.1905670166015625,-0.225250244140625,-0.92901611328125,31.305419921875,19.381118774414062,-67.28218078613281,,,,,,,,,,
0,2018-10-30 16:45:07.9670,00:43,60,0,2018-10-30 16:45:08.9440,1540932308.9439359,0.3956088515057447,0.35413411226939573,0.020687967979953537,-0.18505859375,-0.243377685546875,-0.8590545654296875,31.305419921875,19.381118774414062,-67.28218078613281,,,,,,,,,,
0,2018-10-30 16:45:07.9670,00:43,60,0,2018-10-30 16:45:08.9610,1540932308.9608278,0.2457370643165545,0.46348510452470326,0.08296891954865561,-0.165252685546875,-0.2611083984375,-0.8168792724609375,31.6558837890625,19.078460693359375,-67.43051147460938,,,,,,,,,,
0,2018-10-30 16:45:07.9670,00:43,60,0,2018-10-30 16:45:08.9770,1540932308.977346,0.09795159752533239,0.5717130417483244,0.15060229227619892,-0.159515380859375,-0.2734222412109375,-0.8216094970703125,31.854278564453125,18.961196899414062,-67.5802001953125,,,,,,,,,,
0,2018-10-30 16:45:07.9670,00:43,60,0,2018-10-30 16:45:08.9940,1540932308.9939508,-0.024296551257010905,0.5868059745941305,0.18598877894451782,-0.1424713134765625,-0.2641448974609375,-0.8477935791015625,31.854278564453125,18.961196899414062,-67.5802001953125,,,,,,,,,,
0,2018-10-30 16:45:07.9670,00:43,60,0,2018-10-30 16:45:09.0110,1540932309.0107079,-0.12395070766723096,0.5400131689770022,0.2255769348646547,-0.1196136474609375,-0.2667236328125,-0.884979248046875,32.25431823730469,18.727005004882812,-67.48908996582031,,,,,,,,,,
0,2018-10-30 16:45:07.9670,00:43,60,0,2018-10-30 16:45:09.0270,1540932309.0273771,-0.16349838353879864,0.49478523681640457,0.2705068592992725,-0.105560302734375,-0.2774810791015625,-0.9183807373046875,32.47459411621094,18.839279174804688,-67.31683349609375,,,,,,,,,,
0,2018-10-30 16:45:07.9670,00:43,60,0,2018-10-30 16:45:09.0440,1540932309.0440512,-0.13088318230081622,0.49753708117078344,0.3154785953630046,-0.1295166015625,-0.262420654296875,-0.952178955078125,32.98347473144531,18.661102294921875,-67.29576110839844,,,,,,,,,,
0,2018-10-30 16:45:07.9670,00:43,60,0,2018-10-30 16:45:09.0610,1540932309.060745,-0.04638587460256414,0.6179391266854838,0.29740212314798276,-0.157196044921875,-0.2216796875,-0.9630889892578125,33.30619812011719,18.519500732421875,-67.36154174804688,,,,,,,,,,
0,2018-10-30 16:45:07.9670,00:43,60,0,2018-10-30 16:45:09.0780,1540932309.0775409,0.08138487133227648,0.6053676747597647,0.1592146889254062,-0.201202392578125,-0.1929931640625,-1.010711669921875,33.57344055175781,18.699981689453125,-67.26223754882812,,,,,,,,,,
0,2018-10-30 16:45:07.9670,00:43,60,0,2018-10-30 16:45:09.0940,1540932309.094122,0.20342662513013865,0.43813394147602097,0.032617331766854475,-0.174072265625,-0.166290283203125,-1.0786590576171875,34.03466796875,18.453521728515625,-67.24630737304688,,,,,,,,,,
0,2018-10-30 16:45:07.9670,00:43,60,0,2018-10-30 16:45:09.1110,1540932309.110886,0.09503756666056769,0.7407270982207862,-0.18329738834688372,-0.1136322021484375,-0.04541015625,-0.944305419921875,34.03466796875,18.453521728515625,-67.24630737304688,,,,,,,,,,
0,2018-10-30 16:45:07.9670,00:43,60,0,2018-10-30 16:45:09.1290,1540932309.1288772,0.09283566507129018,0.47317741299593763,-0.35068132391610796,-0.1410064697265625,-0.137298583984375,-1.0676422119140625,34.232421875,18.336196899414062,-67.47409057617188,,,,,,,,,,
0,2018-10-30 16:45:07.9670,00:43,60,0,2018-10-30 16:45:09.1440,1540932309.144273,0.12111444110629657,0.11504749382698706,-0.3896809212353374,-0.1460723876953125,-0.231689453125,-1.098297119140625,34.5223388671875,18.0458984375,-67.46914672851562,,,,,,,,,,
0,2018-10-30 16:45:07.9670,00:43,60,0,2018-10-30 16:45:09.1610,1540932309.1608958,0.11216515457919429,0.07062889632166446,-0.35011167375894003,-0.138458251953125,-0.25018310546875,-1.0669097900390625,34.584197998046875,18.033676147460938,-67.46623229980469,,,,,,,,,,
0,2018-10-30 16:45:07.9670,00:43,60,0,2018-10-30 16:45:09.1770,1540932309.177428,-0.002682335849927809,0.2098216738557459,-0.26103079950855257,-0.0802154541015625,-0.1951751708984375,-0.998504638671875,34.46246337890625,18.058303833007812,-67.23776245117188,,,,,,,,,,
0,2018-10-30 16:45:07.9670,00:43,60,0,2018-10-30 16:45:09.1940,1540932309.194196,-0.21176418355484972,0.08180405288785496,-0.20331184288715623,-0.034881591796875,-0.1466827392578125,-1.0015411376953125,34.352996826171875,18.002227783203125,-67.24580383300781,,,,,,,,,,
0,2018-10-30 16:45:07.9670,00:43,60,0,2018-10-30 16:45:09.2110,1540932309.2109299,-0.43908442366907025,-0.34058101916587347,-0.3301398297961088,-0.0917816162109375,-0.1399383544921875,-1.0528717041015625,34.352996826171875,18.002227783203125,-67.24580383300781,,,,,,,,,,
0,2018-10-30 16:45:07.9670,00:43,60,0,2018-10-30 16:45:09.2280,1540932309.227545,-0.6955396461087577,-0.7449865580682589,-0.5554579054028078,-0.1739654541015625,-0.1551055908203125,-1.055206298828125,34.01362609863281,17.914825439453125,-66.87722778320312,,,,,,,,,,
0,2018-10-30 16:45:07.9670,00:43,60,0,2018-10-30 16:45:09.2440,1540932309.244106,-0.9394252808354892,-0.9247778948400533,-0.7205336792552604,-0.1938323974609375,-0.1430511474609375,-1.0166015625,33.42218017578125,18.576217651367188,-66.57252502441406,,,,,,,,,,
0,2018-10-30 16:45:07.9670,00:43,60,0,2018-10-30 16:45:09.2610,1540932309.2609801,-1.033827417259964,-0.8911064839137455,-0.7997131868888422,-0.1857757568359375,-0.1147003173828125,-1.0153350830078125,32.7786865234375,18.859619140625,-66.20668029785156,,,,,,,,,,
0,2018-10-30 16:45:07.9670,00:43,60,0,2018-10-30 16:45:09.2780,1540932309.27754,-0.9246455357338764,-0.7180753152530082,-0.7845339676237176,-0.1340789794921875,-0.075225830078125,-1.04150390625,32.257537841796875,19.118484497070312,-65.9912109375,,,,,,,,,,
0,2018-10-30 16:45:07.9670,00:43,60,0,2018-10-30 16:45:09.2940,1540932309.2942939,-0.6094771986378661,-0.4942366256318482,-0.7157985788370995,-0.1005859375,-0.06317138671875,-1.078948974609375,31.919952392578125,19.340530395507812,-66.00132751464844,,,,,,,,,,
0,2018-10-30 16:45:07.9670,00:43,60,0,2018-10-30 16:45:09.3110,1540932309.310812,-0.22323974469200114,-0.3274780002865746,-0.608599687058685,-0.0712738037109375,-0.0813751220703125,-1.091339111328125,31.919952392578125,19.340530395507812,-66.00132751464844,,,,,,,,,,
0,2018-10-30 16:45:07.9670,00:43,60,0,2018-10-30 16:45:09.3280,1540932309.327554,0.04780187735415927,-0.07742421815911063,-0.4980577291638939,-0.0792388916015625,-0.0854034423828125,-1.036102294921875,31.624984741210938,19.321090698242188,-66.01808166503906,,,,,,,,,,
0,2018-10-30 16:45:07.9670,00:43,60,0,2018-10-30 16:45:09.3450,1540932309.345334,0.16548962908585088,0.12329157529743635,-0.3939648821648388,-0.0735626220703125,-0.0802001953125,-0.969482421875,31.372589111328125,19.060165405273438,-66.04153442382812,,,,,,,,,,
0,2018-10-30 16:45:07.9670,00:43,60,0,2018-10-30 16:45:09.3620,1540932309.3619819,0.11429488450293067,0.18627640034224635,-0.33390660484191687,-0.102813720703125,-0.1085357666015625,-0.9349365234375,31.60198974609375,18.782180786132812,-65.88328552246094,,,,,,,,,,
0,2018-10-30 16:45:07.9670,00:43,60,0,2018-10-30 16:45:09.3780,1540932309.377809,-0.020026438765177856,0.14854633191465777,-0.3135744351835979,-0.102813720703125,-0.1085357666015625,-0.9349365234375,31.498214721679688,19.035934448242188,-65.80143737792969,,,,,,,,,,
0,2018-10-30 16:45:07.9670,00:43,60,0,2018-10-30 16:45:09.3940,1540932309.3944921,-0.19072627620765975,-0.042620164821192096,-0.24416313611231769,-0.0618896484375,-0.13153076171875,-0.9638519287109375,31.6502685546875,18.850540161132812,-65.80006408691406,,,,,,,,,,
0,2018-10-30 16:45:07.9670,00:43,60,0,2018-10-30 16:45:09.4110,1540932309.410975,-0.40708654317176823,-0.23711587923575,-0.04409981712284012,-0.0071868896484375,-0.1181793212890625,-1.0129852294921875,31.6502685546875,18.850540161132812,-65.80006408691406,,,,,,,,,,
0,2018-10-30 16:45:07.9670,00:43,60,0,2018-10-30 16:45:09.4280,1540932309.427552,-0.5522943363439027,-0.3729131263799805,0.18279032247533264,-0.0071868896484375,-0.1181793212890625,-1.0129852294921875,31.29541015625,18.843475341796875,-65.58544921875,,,,,,,,,,
0,2018-10-30 16:45:07.9670,00:43,60,0,2018-10-30 16:45:09.4460,1540932309.446127,-0.4958662139028677,-0.41688191597718866,0.22341524700783738,-0.079437255859375,-0.0342559814453125,-1.0689239501953125,31.147247314453125,19.029296875,-65.11822509765625,,,,,,,,,,
0,2018-10-30 16:45:07.9670,00:43,60,0,2018-10-30 16:45:09.4620,1540932309.461797,-0.11968112780761593,-0.44557081882006727,-0.26716539107955006,-0.21783447265625,0.1135711669921875,-1.088134765625,31.056365966796875,19.202407836914062,-65.19477844238281,,,,,,,,,,
0,2018-10-30 16:45:07.9670,00:43,60,0,2018-10-30 16:45:09.4780,1540932309.477724,-0.11968112780761593,-0.44557081882006727,-0.26716539107955006,-0.21783447265625,0.1135711669921875,-1.088134765625,30.932052612304688,19.226776123046875,-65.27870178222656,,,,,,,,,,
0,2018-10-30 16:45:07.9670,00:43,60,0,2018-10-30 16:45:09.4940,1540932309.49432,-0.05240541761447024,-0.3014242953423294,-0.501522501742087,-0.2012176513671875,0.0217132568359375,-0.98480224609375,30.818817138671875,18.861099243164062,-65.14236450195312,,,,,,,,,,
0,2018-10-30 16:45:07.9670,00:43,60,0,2018-10-30 16:45:09.5110,1540932309.511073,0.022263760396953422,0.0337811331632191,-0.38654478273566006,-0.1649322509765625,-0.044921875,-1.0091552734375,30.818817138671875,18.861099243164062,-65.14236450195312,,,,,,,,,,
0,2018-10-30 16:45:07.9670,00:43,60,0,2018-10-30 16:45:09.5280,1540932309.527647,0.022263760396953422,0.0337811331632191,-0.38654478273566006,-0.1649322509765625,-0.044921875,-1.0091552734375,30.71063232421875,18.805145263671875,-64.99421691894531,,,,,,,,,,
0,2018-10-30 16:45:07.9670,00:43,60,0,2018-10-30 16:45:09.5440,1540932309.544286,0.13550483205653974,0.21286886277501457,-0.27283978841418194,-0.1509552001953125,-0.0433502197265625,-1.020660400390625,30.664306640625,18.736984252929688,-64.8431396484375,,,,,,,,,,
0,2018-10-30 16:45:07.9670,00:43,60,0,2018-10-30 16:45:09.5610,1540932309.561063,0.3595158282002278,0.22860281849520273,-0.4174406471738873,-0.16632080078125,-0.043548583984375,-1.0075836181640625,30.751266479492188,18.563461303710938,-65.23516845703125,,,,,,,,,,
0,2018-10-30 16:45:07.9670,00:43,60,0,2018-10-30 16:45:09.5790,1540932309.5786262,0.3595158282002278,0.22860281849520273,-0.4174406471738873,-0.16632080078125,-0.043548583984375,-1.0075836181640625,30.806747436523438,18.241378784179688,-65.4002685546875,,,,,,,,,,
0,2018-10-30 16:45:07.9670,00:43,60,0,2018-10-30 16:45:09.5940,1540932309.5944939,0.1770618629705722,0.08273908874658177,-0.5589304011481621,-0.14752197265625,-0.133056640625,-0.9350738525390625,30.837738037109375,18.080642700195312,-65.09233093261719,,,,,,,,,,
0,2018-10-30 16:45:07.9670,00:43,60,0,2018-10-30 16:45:09.6110,1540932309.611185,0.1418154585755915,0.04718721977456898,-0.5097061294557915,-0.1217803955078125,-0.1848602294921875,-0.9386138916015625,31.12261962890625,17.480575561523438,-65.09916687011719,,,,,,,,,,
0,2018-10-30 16:45:07.9670,00:43,60,0,2018-10-30 16:45:09.6280,1540932309.627678,0.1418154585755915,0.04718721977456898,-0.5097061294557915,-0.1066131591796875,-0.2113800048828125,-0.9590301513671875,31.12261962890625,17.480575561523438,-65.09916687011719,,,,,,,,,,
0,2018-10-30 16:45:07.9670,00:43,60,0,2018-10-30 16:45:09.6440,1540932309.644331,0.3944631596047926,0.15756006694013996,-0.31687568967086016,-0.109161376953125,-0.2158660888671875,-0.9763031005859375,31.026046752929688,17.3438720703125,-65.265625,,,,,,,,,,
0,2018-10-30 16:45:07.9670,00:43,60,0,2018-10-30 16:45:09.6610,1540932309.661114,0.5309187401704907,0.22614365554462354,-0.21402121257869186,-0.112823486328125,-0.2173614501953125,-0.9810638427734375,31.0777587890625,16.712158203125,-65.28633117675781,,,,,,,,,,
0,2018-10-30 16:45:07.9670,00:43,60,0,2018-10-30 16:45:09.6780,1540932309.6776361,0.5309187401704907,0.22614365554462354,-0.21402121257869186,-0.12408447265625,-0.2236785888671875,-0.9658966064453125,31.382537841796875,16.341415405273438,-65.20550537109375,,,,,,,,,,
0,2018-10-30 16:45:07.9670,00:43,60,0,2018-10-30 16:45:09.6940,1540932309.694377,0.4262128334884993,0.34644902831175406,-0.02430507337249916,-0.135162353515625,-0.23040771484375,-0.9431610107421875,31.450912475585938,15.938690185546875,-65.52902221679688,,,,,,,,,,
0,2018-10-30 16:45:07.9670,00:43,60,0,2018-10-30 16:45:09.7110,1540932309.711145,0.30529067261290643,0.40453656642801733,0.07538583466076398,-0.1135406494140625,-0.196929931640625,-0.96527099609375,31.852920532226562,15.704696655273438,-65.20362854003906,,,,,,,,,,
0,2018-10-30 16:45:07.9670,00:43,60,0,2018-10-30 16:45:09.7280,1540932309.727744,0.20482904576017436,0.3932732592297452,0.15785248202783064,-0.08648681640625,-0.160369873046875,-1.022552490234375,31.852920532226562,15.704696655273438,-65.20362854003906,,,,,,,,,,
0,2018-10-30 16:45:07.9670,00:43,60,0,2018-10-30 16:45:09.7440,1540932309.744419,0.14125592843056584,0.3795055153423626,0.23709457394702937,-0.089630126953125,-0.1457061767578125,-1.080047607421875,32.09587097167969,15.346176147460938,-65.12570190429688,,,,,,,,,,
0,2018-10-30 16:45:07.9670,00:43,60,0,2018-10-30 16:45:09.7610,1540932309.761046,0.07436717554380867,0.32829026441904874,0.2220554369552429,-0.1220550537109375,-0.142730712890625,-1.137542724609375,32.4874267578125,15.502273559570312,-64.94245910644531,,,,,,,,,,
0,2018-10-30 16:45:07.9670,00:43,60,0,2018-10-30 16:45:09.7780,1540932309.777796,-0.13308508389009374,0.22998739594593492,0.14809465979378034,-0.1202392578125,-0.11492919921875,-1.1475372314453125,32.57569885253906,15.32891845703125,-65.17829895019531,,,,,,,,,,
0,2018-10-30 16:45:07.9670,00:43,60,0,2018-10-30 16:45:09.7960,1540932309.795512,-0.37523833232772863,0.03356115605717856,0.08151723043845342,-0.0717315673828125,-0.072723388671875,-1.16790771484375,32.85469055175781,15.119415283203125,-64.78062438964844,,,,,,,,,,
0,2018-10-30 16:45:07.9670,00:43,60,0,2018-10-30 16:45:09.8120,1540932309.812325,-0.4045996833458522,-0.04110509247704602,0.16067596541553267,-0.0062103271484375,-0.059967041015625,-1.225799560546875,32.783050537109375,15.52178955078125,-64.84759521484375,,,,,,,,,,
0,2018-10-30 16:45:07.9670,00:43,60,0,2018-10-30 16:45:09.8280,1540932309.8277721,-0.1283012476239844,0.023321834298041903,0.42626263460088376,0.1912384033203125,-0.1215667724609375,-1.164947509765625,32.783050537109375,15.52178955078125,-64.84759521484375,,,,,,,,,,
0,2018-10-30 16:45:07.9670,00:43,60,0,2018-10-30 16:45:09.8440,1540932309.844345,0.019537482389039306,-0.1813069417481585,0.3927779112669905,0.0717315673828125,-0.052001953125,-1.1796875,32.89448547363281,15.578048706054688,-64.60527038574219,,,,,,,,,,
0,2018-10-30 16:45:07.9670,00:43,60,0,2018-10-30 16:45:09.8610,1540932309.8610559,0.0835902350309711,-0.38306456382314447,0.1130186977085647,-0.096099853515625,0.074737548828125,-1.080535888671875,32.90802001953125,15.49749755859375,-64.68559265136719,,,,,,,,,,
0,2018-10-30 16:45:07.9670,00:43,60,0,2018-10-30 16:45:09.8780,1540932309.877867,0.12402847197106127,-0.3902271355749126,-0.08618015919107315,-0.1132659912109375,0.063262939453125,-0.9578094482421875,32.67047119140625,15.156173706054688,-64.6331787109375,,,,,,,,,,
0,2018-10-30 16:45:07.9670,00:43,60,0,2018-10-30 16:45:09.8950,1540932309.8945541,0.10084352415304944,-0.29136393800844607,-0.13959571380701044,-0.11151123046875,-0.0050506591796875,-0.85430908203125,32.71240234375,14.914627075195312,-64.71795654296875,,,,,,,,,,
0,2018-10-30 16:45:07.9670,00:43,60,0,2018-10-30 16:45:09.9110,1540932309.9112868,0.06903552704147005,-0.087754620027528,-0.12969914088016699,-0.1251068115234375,-0.0408935546875,-0.804351806640625,32.678955078125,14.765853881835938,-64.72529602050781,,,,,,,,,,
0,2018-10-30 16:45:07.9670,00:43,60,0,2018-10-30 16:45:09.9280,1540932309.927843,0.1220665211959999,0.1669447803054702,-0.11654738615291968,-0.1346588134765625,-0.065826416015625,-0.7999725341796875,32.678955078125,14.765853881835938,-64.72529602050781,,,,,,,,,,
0,2018-10-30 16:45:07.9670,00:43,60,0,2018-10-30 16:45:09.9450,1540932309.944566,0.2240051371892899,0.26930817049262784,0.00670344277983845,0.0235443115234375,-0.1092376708984375,-0.8955230712890625,32.9140625,14.797683715820312,-64.47714233398438,,,,,,,,,,
0,2018-10-30 16:45:07.9670,00:43,60,0,2018-10-30 16:45:09.9610,1540932309.961152,0.2292134813331579,0.189658082294429,0.16723320065152578,0.054473876953125,-0.1708221435546875,-0.9941253662109375,33.141510009765625,14.519500732421875,-64.55319213867188,,,,,,,,,,
0,2018-10-30 16:45:07.9670,00:43,60,0,2018-10-30 16:45:09.9780,1540932309.977905,-0.0030349383782543,0.16904068808336253,0.20046039630800838,-0.0399627685546875,-0.1041717529296875,-0.9002685546875,33.466827392578125,14.378158569335938,-64.30659484863281,,,,,,,,,,
0,2018-10-30 16:45:07.9670,00:43,60,0,2018-10-30 16:45:09.9940,1540932309.99445,-0.3137858901741502,0.09835400116604337,0.23043214384797814,-0.083587646484375,-0.0547637939453125,-0.8497772216796875,33.5015869140625,14.52703857421875,-64.14302062988281,,,,,,,,,,
0,2018-10-30 16:45:07.9670,00:43,60,0,2018-10-30 16:45:10.0110,1540932310.011403,-0.5309895802554868,-0.09575662015488909,0.3362603066133289,-0.0772705078125,-0.070343017578125,-0.910430908203125,33.67549133300781,14.571182250976562,-63.819671630859375,,,,,,,,,,
0,2018-10-30 16:45:07.9670,00:43,60,0,2018-10-30 16:45:10.0290,1540932310.029077,-0.5116600907475827,-0.14928802227824484,0.4229294221805406,-0.094268798828125,-0.052032470703125,-0.989288330078125,33.47514343261719,14.688232421875,-63.90428161621094,,,,,,,,,,
0,2018-10-30 16:45:07.9670,00:43,60,0,2018-10-30 16:45:10.0450,1540932310.044608,-0.31857638434298474,-0.01931777159910777,0.4562399747791427,-0.10906982421875,-0.0375823974609375,-1.00909423828125,33.47514343261719,14.688232421875,-63.90428161621094,,,,,,,,,,
0,2018-10-30 16:45:07.9670,00:43,60,0,2018-10-30 16:45:10.0610,1540932310.061253,-0.10686573032604563,0.1829543731984815,0.4864226446774467,-0.091766357421875,-0.0578460693359375,-0.97344970703125,33.89445495605469,14.683319091796875,-63.8035888671875,,,,,,,,,,
0,2018-10-30 16:45:07.9670,00:43,60,0,2018-10-30 16:45:10.0780,1540932310.0779781,-0.015881228528469522,0.22622141984845387,0.53785547586182,-0.0598907470703125,-0.10260009765625,-0.9597625732421875,34.12890625,14.715087890625,-63.633544921875,,,,,,,,,,
0,2018-10-30 16:45:07.9670,00:43,60,0,2018-10-30 16:45:10.0940,1540932310.094495,-0.013315006502069167,0.1709147545424513,0.5677707643866802,-0.0723724365234375,-0.1233367919921875,-0.9564971923828125,34.56175231933594,14.629608154296875,-63.61317443847656,,,,,,,,,,
0,2018-10-30 16:45:07.9670,00:43,60,0,2018-10-30 16:45:10.1110,1540932310.111387,-0.019415775927222687,0.18732169107010246,0.5367374808362048,-0.09222412109375,-0.1086273193359375,-0.951690673828125,34.75834655761719,14.202911376953125,-63.384185791015625,,,,,,,,,,
0,2018-10-30 16:45:07.9670,00:43,60,0,2018-10-30 16:45:10.1280,1540932310.127945,0.07037562970199791,0.2896411390992738,0.4297559030027407,-0.1226348876953125,-0.07269287109375,-0.9556121826171875,34.97468566894531,14.314804077148438,-63.68048095703125,,,,,,,,,,
0,2018-10-30 16:45:07.9670,00:43,60,0,2018-10-30 16:45:10.1450,1540932310.144649,0.18531473287261874,0.38718713719058717,0.37416374682788167,-0.1166229248046875,-0.1273651123046875,-0.9621429443359375,34.97468566894531,14.314804077148438,-63.68048095703125,,,,,,,,,,
0,2018-10-30 16:45:07.9670,00:43,60,0,2018-10-30 16:45:10.1610,1540932310.161269,0.2506404765156084,0.47978844408595034,0.3217900208303834,-0.1166229248046875,-0.1273651123046875,-0.9621429443359375,35.32841491699219,14.012466430664062,-63.43833923339844,,,,,,,,,,
0,2018-10-30 16:45:07.9670,00:43,60,0,2018-10-30 16:45:10.1780,1540932310.17797,0.26150351060204163,0.49088583634831057,0.22542353678586613,-0.1043701171875,-0.1339874267578125,-0.9786224365234375,35.63124084472656,13.641525268554688,-63.59178161621094,,,,,,,,,,
0,2018-10-30 16:45:07.9670,00:43,60,0,2018-10-30 16:45:10.1950,1540932310.194728,0.134337834866867,0.2764614211805807,0.055993494551134,0.0052947998046875,-0.1925811767578125,-0.9842376708984375,36.03193664550781,13.407424926757812,-63.42259216308594,,,,,,,,,,
0,2018-10-30 16:45:07.9670,00:43,60,0,2018-10-30 16:45:10.2110,1540932310.211371,0.20733294981706687,0.3123427231794363,0.10420896082258257,0.0052947998046875,-0.1925811767578125,-0.9842376708984375,36.07958984375,13.475692749023438,-63.41746520996094,,,,,,,,,,
0,2018-10-30 16:45:07.9670,00:43,60,0,2018-10-30 16:45:10.2280,1540932310.227899,0.27800525566449963,0.32766575314342516,0.15989565921613944,0.0330810546875,-0.218505859375,-1.056396484375,36.321868896484375,13.117095947265625,-63.417633056640625,,,,,,,,,,
0,2018-10-30 16:45:07.9670,00:43,60,0,2018-10-30 16:45:10.2460,1540932310.245914,0.16118276497097475,0.23372966990971425,0.12875291974486183,0.0145263671875,-0.2054290771484375,-1.0350494384765625,36.321868896484375,13.117095947265625,-63.417633056640625,,,,,,,,,,
0,2018-10-30 16:45:07.9670,00:43,60,0,2018-10-30 16:45:10.2610,1540932310.2613559,0.16118276497097475,0.23372966990971425,0.12875291974486183,0.0145263671875,-0.2054290771484375,-1.0350494384765625,36.55632019042969,13.14886474609375,-63.24755859375,,,,,,,,,,
0,2018-10-30 16:45:07.9670,00:43,60,0,2018-10-30 16:45:10.2780,1540932310.278057,0.013520602538223285,0.11410526743331702,0.10401108795358968,-0.0046539306640625,-0.193511962890625,-1.0720062255859375,36.70903015136719,12.963516235351562,-63.16810607910156,,,,,,,,,,
0,2018-10-30 16:45:07.9670,00:43,60,0,2018-10-30 16:45:10.2950,1540932310.2946692,-0.16855386223609606,0.030572822998000647,0.062188273562767314,-0.021484375,-0.1760711669921875,-1.102203369140625,36.89079284667969,12.617263793945312,-63.0150146484375,,,,,,,,,,
0,2018-10-30 16:45:07.9670,00:43,60,0,2018-10-30 16:45:10.3110,1540932310.31143,-0.16855386223609606,0.030572822998000647,0.062188273562767314,-0.021484375,-0.1760711669921875,-1.102203369140625,36.98735046386719,12.753952026367188,-62.84852600097656,,,,,,,,,,
0,2018-10-30 16:45:07.9670,00:43,60,0,2018-10-30 16:45:10.3280,1540932310.328104,-0.10137908584826438,0.10887268852352934,0.0654812722506503,-0.133392333984375,-0.1401214599609375,-1.1678314208984375,37.278594970703125,12.463775634765625,-62.68739318847656,,,,,,,,,,
0,2018-10-30 16:45:07.9670,00:43,60,0,2018-10-30 16:45:10.3450,1540932310.3447409,-0.11148045586293492,0.22432711336508052,-0.1110660679973186,-0.130035400390625,-0.1248931884765625,-1.1934356689453125,37.278594970703125,12.463775634765625,-62.68739318847656,,,,,,,,,,
0,2018-10-30 16:45:07.9670,00:43,60,0,2018-10-30 16:45:10.3610,1540932310.361404,-0.11148045586293492,0.22432711336508052,-0.1110660679973186,-0.130035400390625,-0.1248931884765625,-1.1934356689453125,37.23095703125,12.395492553710938,-62.69252014160156,,,,,,,,,,
0,2018-10-30 16:45:07.9670,00:43,60,0,2018-10-30 16:45:10.3780,1540932310.378079,-0.12864506172071363,0.11046019884932558,0.004450674813740423,-0.056182861328125,-0.11309814453125,-1.2170562744140625,37.325592041015625,12.531967163085938,-62.760345458984375,,,,,,,,,,
0,2018-10-30 16:45:07.9670,00:43,60,0,2018-10-30 16:45:10.3950,1540932310.3948278,0.254625897086912,0.2329506952908661,-0.17111182846311718,-0.0687103271484375,-0.021636962890625,-1.2100067138671875,37.63606262207031,12.471054077148438,-62.58961486816406,,,,,,,,,,
0,2018-10-30 16:45:07.9670,00:43,60,0,2018-10-30 16:45:10.4110,1540932310.4114652,0.254625897086912,0.2329506952908661,-0.17111182846311718,-0.100921630859375,0.0274200439453125,-1.180633544921875,37.759735107421875,12.446624755859375,-62.58380126953125,,,,,,,,,,
0,2018-10-30 16:45:07.9670,00:43,60,0,2018-10-30 16:45:10.4280,1540932310.428101,0.44164079199943734,-0.016406403895433148,-0.4734474575304717,-0.06707763671875,-0.0261688232421875,-1.0355682373046875,37.78242492675781,11.975830078125,-62.67814636230469,,,,,,,,,,
0,2018-10-30 16:45:07.9670,00:43,60,0,2018-10-30 16:45:10.4450,1540932310.444824,0.44164079199943734,-0.016406403895433148,-0.4734474575304717,-0.06707763671875,-0.0261688232421875,-1.0355682373046875,37.78242492675781,11.975830078125,-62.67814636230469,,,,,,,,,,
0,2018-10-30 16:45:07.9670,00:43,60,0,2018-10-30 16:45:10.4640,1540932310.464045,0.18027363524520776,-0.2109433973068873,-0.4254357230824142,0.00311279296875,-0.102264404296875,-0.8692474365234375,37.68974304199219,11.839523315429688,-62.37602233886719,,,,,,,,,,
0,2018-10-30 16:45:07.9670,00:43,60,0,2018-10-30 16:45:10.4790,1540932310.4786491,-0.3567493364598535,-0.5320644320714427,-0.24793949853805006,-0.0506134033203125,-0.066925048828125,-0.9201507568359375,37.89073181152344,11.722518920898438,-62.21333312988281,,,,,,,,,,
0,2018-10-30 16:45:07.9670,00:43,60,0,2018-10-30 16:45:10.4950,1540932310.494833,-0.3567493364598535,-0.5320644320714427,-0.24793949853805006,-0.0506134033203125,-0.066925048828125,-0.9201507568359375,37.44941711425781,12.198318481445312,-62.14155578613281,,,,,,,,,,
0,2018-10-30 16:45:07.9670,00:43,60,0,2018-10-30 16:45:10.5120,1540932310.511553,-0.2585676418163383,-0.2802572246822706,-0.1609127204364407,-0.0444793701171875,-0.038116455078125,-0.9738006591796875,37.4481201171875,12.198196411132812,-62.297760009765625,,,,,,,,,,
0,2018-10-30 16:45:07.9670,00:43,60,0,2018-10-30 16:45:10.5280,1540932310.5281749,-0.24540470181251264,-0.0798596789759881,0.0031731564388294124,-0.0391387939453125,-0.03851318359375,-0.9451141357421875,37.49574279785156,12.2664794921875,-62.29261779785156,,,,,,,,,,
0,2018-10-30 16:45:07.9670,00:43,60,0,2018-10-30 16:45:10.5450,1540932310.545061,-0.24540470181251264,-0.0798596789759881,0.0031731564388294124,-0.0571136474609375,-0.0189208984375,-0.9320068359375,37.62266540527344,12.242385864257812,-61.89631652832031,,,,,,,,,,
0,2018-10-30 16:45:07.9670,00:43,60,0,2018-10-30 16:45:10.5620,1540932310.5615702,-0.24657915585323759,0.15544977809236116,0.12661280349287415,-0.078155517578125,0.0127105712890625,-0.921722412109375,37.62266540527344,12.242385864257812,-61.89631652832031,,,,,,,,,,
0,2018-10-30 16:45:07.9670,00:43,60,0,2018-10-30 16:45:10.5780,1540932310.5783029,-0.14639396512165573,0.13964551491939495,0.051608866132427544,-0.063568115234375,0.0007476806640625,-0.93780517578125,38.173492431640625,11.822647094726562,-61.96002197265625,,,,,,,,,,
0,2018-10-30 16:45:07.9670,00:43,60,0,2018-10-30 16:45:10.5950,1540932310.594836,-0.14639396512165573,0.13964551491939495,0.051608866132427544,-0.031280517578125,-0.0242156982421875,-0.9369049072265625,38.11735534667969,12.144699096679688,-61.87303161621094,,,,,,,,,,
0,2018-10-30 16:45:07.9670,00:43,60,0,2018-10-30 16:45:10.6120,1540932310.61168,-0.12229315620476564,-0.1069956925872415,0.0020391824466736725,-0.020782470703125,-0.0796661376953125,-0.8916168212890625,38.32212829589844,12.337310791015625,-61.854736328125,,,,,,,,,,
0,2018-10-30 16:45:07.9670,00:43,60,0,2018-10-30 16:45:10.6280,1540932310.628337,-0.20927892162558775,-0.05100725804217864,0.004270911440160075,-0.048553466796875,-0.098419189453125,-0.8369903564453125,38.214569091796875,12.28143310546875,-61.62847900390625,,,,,,,,,,
0,2018-10-30 16:45:07.9670,00:43,60,0,2018-10-30 16:45:10.6450,1540932310.6449718,-0.2643586856067156,0.017924139400669305,-0.06095336576529757,-0.057464599609375,-0.08514404296875,-0.8497467041015625,38.36663818359375,12.096038818359375,-61.627105712890625,,,,,,,,,,
0,2018-10-30 16:45:07.9670,00:43,60,0,2018-10-30 16:45:10.6620,1540932310.661584,-0.18908310581508087,0.033892719612893425,-0.17767572160183545,-0.0326690673828125,-0.063751220703125,-0.926605224609375,38.36663818359375,12.096038818359375,-61.627105712890625,,,,,,,,,,
0,2018-10-30 16:45:07.9670,00:43,60,0,2018-10-30 16:45:10.6790,1540932310.679337,-0.03654096700086822,-0.009634251559470652,-0.2077502671598823,-0.0073089599609375,-0.0835418701171875,-1.009521484375,38.634552001953125,12.276580810546875,-61.44970703125,,,,,,,,,,
0,2018-10-30 16:45:07.9670,00:43,60,0,2018-10-30 16:45:10.6950,1540932310.6949859,0.1712681560191048,-0.027390345495355958,-0.3234752691681855,-0.0276641845703125,-0.11785888671875,-1.0021820068359375,38.50892639160156,12.300796508789062,-61.68980407714844,,,,,,,,,,
0,2018-10-30 16:45:07.9670,00:43,60,0,2018-10-30 16:45:10.7120,1540932310.71164,0.2598305128052539,-0.18639730785573597,-0.5335816349444609,-0.0609283447265625,-0.0716094970703125,-1.0042266845703125,38.72346496582031,12.103256225585938,-61.607421875,,,,,,,,,,
0,2018-10-30 16:45:07.9670,00:43,60,0,2018-10-30 16:45:10.7280,1540932310.728355,0.27968251451903153,-0.20710844533717318,-0.5411079945011338,-0.0659942626953125,-0.1798553466796875,-0.958740234375,38.659027099609375,12.115219116210938,-61.9227294921875,,,,,,,,,,
0,2018-10-30 16:45:07.9670,00:43,60,0,2018-10-30 16:45:10.7450,1540932310.744945,0.24709873858191203,-0.06759795268504527,-0.45847170377262914,-0.06207275390625,-0.2362823486328125,-0.9034423828125,38.688079833984375,11.954299926757812,-61.849090576171875,,,,,,,,,,
0,2018-10-30 16:45:07.9670,00:43,60,0,2018-10-30 16:45:10.7620,1540932310.761622,0.16765983905815646,0.14783074052975348,-0.3146913649447772,-0.0540771484375,-0.2611846923828125,-0.8674163818359375,38.688079833984375,11.954299926757812,-61.849090576171875,,,,,,,,,,
0,2018-10-30 16:45:07.9670,00:43,60,0,2018-10-30 16:45:10.7780,1540932310.77838,0.13428190848397534,0.22746192028421278,-0.13253860323440947,-0.0333709716796875,-0.2878875732421875,-0.9287261962890625,38.81434631347656,11.93011474609375,-61.53086853027344,,,,,,,,,,
0,2018-10-30 16:45:07.9670,00:43,60,0,2018-10-30 16:45:10.7950,1540932310.795064,0.13556608476161155,0.17176057450466048,-0.000891626332958529,-0.040679931640625,-0.289276123046875,-1.0167694091796875,39.137054443359375,11.78851318359375,-61.596649169921875,,,,,,,,,,
0,2018-10-30 16:45:07.9670,00:43,60,0,2018-10-30 16:45:10.8120,1540932310.81165,0.12404311935705671,0.08188767614608344,0.05147251228461548,-0.072479248046875,-0.24591064453125,-1.0966796875,39.540863037109375,11.863967895507812,-61.64991760253906,,,,,,,,,,
0,2018-10-30 16:45:07.9670,00:43,60,0,2018-10-30 16:45:10.8280,1540932310.8283381,0.08128287226252645,0.024908545675511116,0.06747544727490162,-0.0950164794921875,-0.1869659423828125,-1.124237060546875,39.70843505859375,11.598190307617188,-61.494598388671875,,,,,,,,,,
0,2018-10-30 16:45:07.9670,00:43,60,0,2018-10-30 16:45:10.8450,1540932310.8450289,0.04253867209183567,-0.04522553531561661,0.11772876441247884,-0.07940673828125,-0.1568756103515625,-1.1710968017578125,39.631103515625,11.690765380859375,-61.65147399902344,,,,,,,,,,
0,2018-10-30 16:45:07.9670,00:43,60,0,2018-10-30 16:45:10.8620,1540932310.8616738,-0.011074755393094512,-0.009347695426178125,0.2002422834147309,-0.077728271484375,-0.158294677734375,-1.1511993408203125,39.631103515625,11.690765380859375,-61.65147399902344,,,,,,,,,,
0,2018-10-30 16:45:07.9670,00:43,60,0,2018-10-30 16:45:10.8780,1540932310.878331,-0.07533123985841736,0.11231935160630989,0.2228959305952719,-0.1182403564453125,-0.1598968505859375,-1.1268157958984375,39.92610168457031,11.710205078125,-61.63470458984375,,,,,,,,,,
0,2018-10-30 16:45:07.9670,00:43,60,0,2018-10-30 16:45:10.8960,1540932310.8960981,-0.16271860997162343,0.24070235827575973,0.24449256913916048,-0.1161041259765625,-0.16339111328125,-1.1202392578125,40.05741882324219,11.99578857421875,-61.304718017578125,,,,,,,,,,
0,2018-10-30 16:45:07.9670,00:43,60,0,2018-10-30 16:45:10.9120,1540932310.911674,-0.3071447653638196,0.25487943002268754,0.291662744682753,-0.055206298828125,-0.13592529296875,-1.130615234375,40.66156005859375,11.95416259765625,-61.27339172363281,,,,,,,,,,
0,2018-10-30 16:45:07.9670,00:43,60,0,2018-10-30 16:45:10.9280,1540932310.928307,-0.4297524408933236,0.23106357934243593,0.32057615200552525,0.005767822265625,0.0103759765625,-1.18450927734375,41.02540588378906,12.271347045898438,-61.00761413574219,,,,,,,,,,
0,2018-10-30 16:45:07.9670,00:43,60,0,2018-10-30 16:45:10.9450,1540932310.945034,-0.41944467589417195,0.19758897602068495,0.2819813551719879,0.005767822265625,0.0103759765625,-1.18450927734375,41.45695495605469,12.185745239257812,-61.1434326171875,,,,,,,,,,
0,2018-10-30 16:45:07.9670,00:43,60,0,2018-10-30 16:45:10.9620,1540932310.961808,-0.2795890375647697,0.13073537686031683,0.16514128761526853,-0.01287841796875,0.071990966796875,-1.19305419921875,41.45695495605469,12.185745239257812,-61.1434326171875,,,,,,,,,,
0,2018-10-30 16:45:07.9670,00:43,60,0,2018-10-30 16:45:10.9780,1540932310.978399,-0.07770331744135094,0.15840375637347706,0.06446580892700308,-0.03765869140625,0.0482025146484375,-1.0526275634765625,41.47685241699219,12.415084838867188,-61.055755615234375,,,,,,,,,,
0,2018-10-30 16:45:07.9670,00:43,60,0,2018-10-30 16:45:10.9950,1540932310.995158,0.1078665462636974,0.25737933933794493,0.022779614700101772,-0.03765869140625,0.0482025146484375,-1.0526275634765625,41.9759521484375,12.6270751953125,-61.09877014160156,,,,,,,,,,
0,2018-10-30 16:45:07.9670,00:43,60,0,2018-10-30 16:45:11.0120,1540932311.011767,0.1711528411439044,0.25256540935151767,-0.0072256886696029895,-0.0094757080078125,0.0172882080078125,-0.9840545654296875,42.30256652832031,12.485870361328125,-60.695953369140625,,,,,,,,,,
0,2018-10-30 16:45:07.9670,00:43,60,0,2018-10-30 16:45:11.0280,1540932311.0284848,-0.18019666988970448,-0.08821534689611171,0.04276903552612753,0.06048583984375,-0.0561676025390625,-0.882110595703125,42.61109924316406,12.424758911132812,-60.759521484375,,,,,,,,,,
0,2018-10-30 16:45:07.9670,00:43,60,0,2018-10-30 16:45:11.0450,1540932311.0450358,-0.18019666988970448,-0.08821534689611171,0.04276903552612753,0.06048583984375,-0.0561676025390625,-0.882110595703125,42.584503173828125,12.895172119140625,-61.13374328613281,,,,,,,,,,
0,2018-10-30 16:45:07.9670,00:43,60,0,2018-10-30 16:45:11.0620,1540932311.061751,-0.42915828965412695,-0.1666188093880445,0.2312039279318831,0.151641845703125,-0.06817626953125,-0.8876190185546875,42.985870361328125,12.661087036132812,-60.886444091796875,,,,,,,,,,
0,2018-10-30 16:45:07.9670,00:43,60,0,2018-10-30 16:45:11.0790,1540932311.078504,-0.6276332993694812,-0.13859889261099378,0.46259241292730874,0.151641845703125,-0.06817626953125,-0.8876190185546875,42.985870361328125,12.661087036132812,-60.886444091796875,,,,,,,,,,
0,2018-10-30 16:45:07.9670,00:43,60,0,2018-10-30 16:45:11.0950,1540932311.0951638,-0.6620296227445086,-0.07483935400507973,0.5590569012999409,0.118194580078125,-0.006317138671875,-0.9478759765625,43.11834716796875,13.256072998046875,-61.013214111328125,,,,,,,,,,
0,2018-10-30 16:45:07.9670,00:43,60,0,2018-10-30 16:45:11.1130,1540932311.112797,-0.45811111176103236,-0.03988483206557171,0.5247833496511661,0.01690673828125,0.10748291015625,-1.1079559326171875,43.4957275390625,13.49267578125,-60.82774353027344,,,,,,,,,,
0,2018-10-30 16:45:07.9670,00:43,60,0,2018-10-30 16:45:11.1290,1540932311.1285338,-0.11951121813006887,-0.05667739431906635,0.39510684564026477,0.01690673828125,0.10748291015625,-1.1079559326171875,43.8995361328125,13.568130493164062,-60.88104248046875,,,,,,,,,,
0,2018-10-30 16:45:07.9670,00:43,60,0,2018-10-30 16:45:11.1450,1540932311.145265,0.18300523957530204,-0.10331014395468083,0.2407723994124288,-0.0238037109375,0.0911712646484375,-1.0832366943359375,44.20936584472656,13.507125854492188,-60.78840637207031,,,,,,,,,,
0,2018-10-30 16:45:07.9670,00:43,60,0,2018-10-30 16:45:11.1620,1540932311.161962,0.28494678504579113,-0.1484632412886473,0.19785768897467396,-0.02325439453125,-0.0479583740234375,-0.8978271484375,44.20741271972656,13.506942749023438,-61.022705078125,,,,,,,,,,
0,2018-10-30 16:45:07.9670,00:43,60,0,2018-10-30 16:45:11.1790,1540932311.178883,0.28494678504579113,-0.1484632412886473,0.19785768897467396,-0.02325439453125,-0.0479583740234375,-0.8978271484375,44.20741271972656,13.506942749023438,-61.022705078125,,,,,,,,,,
0,2018-10-30 16:45:07.9670,00:43,60,0,2018-10-30 16:45:11.1950,1540932311.195382,0.1930461558332278,-0.16383527341669366,0.20535688428822807,-0.089508056640625,-0.1029510498046875,-0.827789306640625,44.55003356933594,13.594680786132812,-61.00079345703125,,,,,,,,,,
0,2018-10-30 16:45:07.9670,00:43,60,0,2018-10-30 16:45:11.2120,1540932311.21211,-0.022895994839738233,-0.2972356755798528,0.0028514465791478405,-0.1024322509765625,-0.0952606201171875,-0.8525390625,44.70713806152344,13.719024658203125,-60.98762512207031,,,,,,,,,,
0,2018-10-30 16:45:07.9670,00:43,60,0,2018-10-30 16:45:11.2290,1540932311.228588,-0.022895994839738233,-0.2972356755798528,0.0028514465791478405,-0.1024322509765625,-0.0952606201171875,-0.8525390625,44.863616943359375,13.84332275390625,-61.052520751953125,,,,,,,,,,
0,2018-10-30 16:45:07.9670,00:43,60,0,2018-10-30 16:45:11.2450,1540932311.24511,-0.015026886450772102,-0.39080717206033183,-0.14825737893638416,-0.087188720703125,-0.111846923828125,-0.9595489501953125,44.86738586425781,14.152923583984375,-61.1968994140625,,,,,,,,,,
0,2018-10-30 16:45:07.9670,00:43,60,0,2018-10-30 16:45:11.2620,1540932311.262053,0.05103335702086142,-0.48351287487042616,-0.3850480862030355,-0.0712127685546875,-0.1225738525390625,-0.9832000732421875,45.07148742675781,14.345504760742188,-61.25666809082031,,,,,,,,,,
0,2018-10-30 16:45:07.9670,00:43,60,0,2018-10-30 16:45:11.2790,1540932311.2785559,0.05103335702086142,-0.48351287487042616,-0.3850480862030355,-0.0712127685546875,-0.1225738525390625,-0.9832000732421875,45.07148742675781,14.345504760742188,-61.25666809082031,,,,,,,,,,
0,2018-10-30 16:45:07.9670,00:43,60,0,2018-10-30 16:45:11.2950,1540932311.295247,0.18883356762094045,-0.29135168746743173,-0.35378923290823044,-0.0727386474609375,-0.16180419921875,-1.009429931640625,44.88468933105469,14.38201904296875,-61.421600341796875,,,,,,,,,,
0,2018-10-30 16:45:07.9670,00:43,60,0,2018-10-30 16:45:11.3120,1540932311.312105,0.4223738867771501,-0.0994134066476769,-0.2261761461099225,-0.036163330078125,-0.1878662109375,-1.0684814453125,45.089447021484375,14.57464599609375,-61.40330505371094,,,,,,,,,,
0,2018-10-30 16:45:07.9670,00:43,60,0,2018-10-30 16:45:11.3300,1540932311.329832,0.4223738867771501,-0.0994134066476769,-0.2261761461099225,-0.0422821044921875,-0.186767578125,-1.048004150390625,45.06349182128906,15.045150756835938,-61.699432373046875,,,,,,,,,,
0,2018-10-30 16:45:07.9670,00:43,60,0,2018-10-30 16:45:11.3450,1540932311.345347,0.8607509748606953,0.3701815220498862,0.03023353627512455,-0.0062408447265625,-0.223785400390625,-1.025665283203125,45.889404296875,14.415512084960938,-61.83406066894531,,,,,,,,,,
0,2018-10-30 16:45:07.9670,00:43,60,0,2018-10-30 16:45:11.3620,1540932311.362087,0.6958355233058655,0.4536583064184199,0.10747825737676385,-0.023956298828125,-0.2174224853515625,-0.9766387939453125,46.216522216796875,14.583602905273438,-61.96612548828125,,,,,,,,,,
0,2018-10-30 16:45:07.9670,00:43,60,0,2018-10-30 16:45:11.3790,1540932311.378677,0.6958355233058655,0.4536583064184199,0.10747825737676385,-0.0523529052734375,-0.1687164306640625,-0.9407958984375,46.216522216796875,14.583602905273438,-61.96612548828125,,,,,,,,,,
0,2018-10-30 16:45:07.9670,00:43,60,0,2018-10-30 16:45:11.3950,1540932311.395273,-0.11219604724783921,0.3057308931410965,0.09035652841253541,-0.085906982421875,-0.1189727783203125,-1.02117919921875,46.57904052734375,14.900634765625,-61.85655212402344,,,,,,,,,,
0,2018-10-30 16:45:07.9670,00:43,60,0,2018-10-30 16:45:11.4120,1540932311.412122,-0.3706398520734888,0.04376559040603518,-0.04697469951958066,-0.099029541015625,-0.088531494140625,-1.1431732177734375,47.14373779296875,15.41009521484375,-62.041046142578125,,,,,,,,,,
0,2018-10-30 16:45:07.9670,00:43,60,0,2018-10-30 16:45:11.4290,1540932311.428612,-0.5341949609435062,-0.22868218069568708,-0.22503444895060554,-0.1093292236328125,-0.0797119140625,-1.2194976806640625,47.25761413574219,15.775833129882812,-62.09928894042969,,,,,,,,,,
0,2018-10-30 16:45:07.9670,00:43,60,0,2018-10-30 16:45:11.4450,1540932311.4453921,-0.6180373973297077,-0.4189024562962318,-0.3301933593340194,-0.0912628173828125,-0.0558013916015625,-1.272735595703125,47.26838684082031,16.395416259765625,-61.997589111328125,,,,,,,,,,
0,2018-10-30 16:45:07.9670,00:43,60,0,2018-10-30 16:45:11.4620,1540932311.461993,-0.6148490608726649,-0.5206985931712026,-0.3067607375346302,-0.0726470947265625,-0.0206146240234375,-1.307891845703125,47.11029052734375,17.280624389648438,-62.2073974609375,,,,,,,,,,
0,2018-10-30 16:45:07.9670,00:43,60,0,2018-10-30 16:45:11.4800,1540932311.480311,-0.5478101057004272,-0.46071195488160377,-0.3216949459794675,-0.06005859375,0.04461669921875,-1.345367431640625,46.91758728027344,17.707717895507812,-61.967803955078125,,,,,,,,,,
0,2018-10-30 16:45:07.9670,00:43,60,0,2018-10-30 16:45:11.4960,1540932311.4961472,-0.29170269209910415,-0.2820487331475669,-0.44468531775761594,-0.1041259765625,0.117462158203125,-1.3032989501953125,46.91758728027344,17.707717895507812,-61.967803955078125,,,,,,,,,,
0,2018-10-30 16:45:07.9670,00:43,60,0,2018-10-30 16:45:11.5120,1540932311.512125,0.03089453285768222,-0.20252727563001888,-0.5485384802585639,-0.1384124755859375,0.1200408935546875,-1.2666168212890625,47.131805419921875,18.519790649414062,-62.00396728515625,,,,,,,,,,
0,2018-10-30 16:45:07.9670,00:43,60,0,2018-10-30 16:45:11.5290,1540932311.528827,0.19300034946247843,-0.1261302387033518,-0.5677587801617747,-0.1217803955078125,0.0926055908203125,-1.16619873046875,46.82377624511719,18.89019775390625,-62.47528076171875,,,,,,,,,,
0,2018-10-30 16:45:07.9670,00:43,60,0,2018-10-30 16:45:11.5450,1540932311.5453959,0.22849682468381757,-0.04761199396843662,-0.5430406505042044,-0.1167449951171875,0.0487823486328125,-1.069671630859375,46.75279235839844,19.29266357421875,-62.46415710449219,,,,,,,,,,
0,2018-10-30 16:45:07.9670,00:43,60,0,2018-10-30 16:45:11.5620,1540932311.562031,0.23857715572587648,0.02244592061551484,-0.5054764970125276,-0.12518310546875,0.00994873046875,-1.0181121826171875,46.75654602050781,19.602310180664062,-62.608551025390625,,,,,,,,,,
0,2018-10-30 16:45:07.9670,00:43,60,0,2018-10-30 16:45:11.5790,1540932311.578833,0.24705453010781672,0.15720586651515941,-0.4153599194142084,-0.12786865234375,-0.024566650390625,-0.978485107421875,46.57350158691406,19.948455810546875,-62.9178466796875,,,,,,,,,,
0,2018-10-30 16:45:07.9670,00:43,60,0,2018-10-30 16:45:11.5950,1540932311.595388,0.24606356786619824,0.3037873181775567,-0.283462871686399,-0.114501953125,-0.0475006103515625,-0.9332427978515625,46.57350158691406,19.948455810546875,-62.9178466796875,,,,,,,,,,
0,2018-10-30 16:45:07.9670,00:43,60,0,2018-10-30 16:45:11.6120,1540932311.612064,0.24226909594505333,0.4956861842131784,-0.11724167224910334,-0.091796875,-0.04766845703125,-0.89312744140625,46.767822265625,20.531204223632812,-63.04170227050781,,,,,,,,,,
0,2018-10-30 16:45:07.9670,00:43,60,0,2018-10-30 16:45:11.6290,1540932311.62878,0.24828624211197836,0.6117696477042063,0.05102536753759118,-0.071563720703125,-0.059661865234375,-0.8680877685546875,46.959686279296875,20.804443359375,-62.864959716796875,,,,,,,,,,
0,2018-10-30 16:45:07.9670,00:43,60,0,2018-10-30 16:45:11.6450,1540932311.645441,0.21083527296663007,0.5792567118520828,0.15700959154282057,-0.0623931884765625,-0.072967529296875,-0.853668212890625,47.363494873046875,20.879898071289062,-62.91825866699219,,,,,,,,,,
0,2018-10-30 16:45:07.9670,00:43,60,0,2018-10-30 16:45:11.6620,1540932311.662142,0.1421243852620407,0.4522734626515787,0.160082080492445,-0.08380126953125,-0.0785980224609375,-0.822357177734375,47.246673583984375,21.523513793945312,-63.29095458984375,,,,,,,,,,
0,2018-10-30 16:45:07.9670,00:43,60,0,2018-10-30 16:45:11.6790,1540932311.678766,0.03421336420813897,0.28386927006874507,0.0667353548079686,-0.118865966796875,-0.0759735107421875,-0.8010711669921875,47.2672119140625,21.752899169921875,-63.12516784667969,,,,,,,,,,
0,2018-10-30 16:45:07.9670,00:43,60,0,2018-10-30 16:45:11.6970,1540932311.6966228,-0.1240393909315306,0.13343395799289412,-0.07155327953603095,-0.132568359375,-0.0698089599609375,-0.7786865234375,47.2672119140625,21.752899169921875,-63.12516784667969,,,,,,,,,,
0,2018-10-30 16:45:07.9670,00:43,60,0,2018-10-30 16:45:11.7120,1540932311.712127,-0.26267476884945845,0.05305070154659644,-0.19369729871975216,-0.120086669921875,-0.0644073486328125,-0.7802734375,47.27293395996094,22.062713623046875,-63.035247802734375,,,,,,,,,,
0,2018-10-30 16:45:07.9670,00:43,60,0,2018-10-30 16:45:11.7290,1540932311.7288132,-0.31656383350721184,0.04060148871491204,-0.19691226678769583,-0.0628662109375,-0.0838623046875,-0.8193817138671875,47.16508483886719,23.0164794921875,-62.92756652832031,,,,,,,,,,
0,2018-10-30 16:45:07.9670,00:43,60,0,2018-10-30 16:45:11.7450,1540932311.745465,-0.2436054701800551,0.07854354476527094,-0.12299356757145648,-0.024200439453125,-0.105682373046875,-0.883148193359375,46.9981689453125,23.282302856445312,-63.004791259765625,,,,,,,,,,
0,2018-10-30 16:45:07.9670,00:43,60,0,2018-10-30 16:45:11.7620,1540932311.762192,-0.12289875903664967,0.14314464227565005,-0.06832899040427202,-0.016204833984375,-0.0988922119140625,-0.9243621826171875,47.15838623046875,23.716232299804688,-63.21412658691406,,,,,,,,,,
0,2018-10-30 16:45:07.9670,00:43,60,0,2018-10-30 16:45:11.7790,1540932311.778799,0.018017882671040094,0.20467964242302092,-0.1068380334507088,-0.048980712890625,-0.0747528076171875,-0.951934814453125,46.81822204589844,23.938034057617188,-63.53660583496094,,,,,,,,,,
0,2018-10-30 16:45:07.9670,00:43,60,0,2018-10-30 16:45:11.7950,1540932311.7954888,0.16096411944547923,0.24054070439759193,-0.22141041933922573,-0.0783538818359375,-0.059417724609375,-0.96270751953125,46.81822204589844,23.938034057617188,-63.53660583496094,,,,,,,,,,
0,2018-10-30 16:45:07.9670,00:43,60,0,2018-10-30 16:45:11.8120,1540932311.81233,0.2406980972180156,0.17741047075726357,-0.3136015994267167,-0.0669097900390625,-0.095703125,-0.9773101806640625,46.5289306640625,24.2283935546875,-63.46345520019531,,,,,,,,,,
0,2018-10-30 16:45:07.9670,00:43,60,0,2018-10-30 16:45:11.8290,1540932311.828854,0.23123908165827214,0.07574429614348865,-0.29230749598266115,-0.0331573486328125,-0.163909912109375,-0.980682373046875,46.3155517578125,24.735321044921875,-64.00260925292969,,,,,,,,,,
0,2018-10-30 16:45:07.9670,00:43,60,0,2018-10-30 16:45:11.8460,1540932311.845535,0.12898568002413477,-0.005917810258265075,-0.18208485110257064,0.0115814208984375,-0.217437744140625,-0.9885406494140625,46.05841064453125,25.174362182617188,-64.07830810546875,,,,,,,,,,
0,2018-10-30 16:45:07.9670,00:43,60,0,2018-10-30 16:45:11.8620,1540932311.862268,0.015793610528605916,-0.01294669132331121,-0.046066827903972644,0.0115814208984375,-0.217437744140625,-0.9885406494140625,45.92250061035156,25.279464721679688,-63.84759521484375,,,,,,,,,,
0,2018-10-30 16:45:07.9670,00:43,60,0,2018-10-30 16:45:11.8790,1540932311.878901,0.037228062562108664,0.041684063698029246,0.035380894030029704,-0.007293701171875,-0.1922760009765625,-1.0466766357421875,45.64091491699219,25.488693237304688,-64.55766296386719,,,,,,,,,,
0,2018-10-30 16:45:07.9670,00:43,60,0,2018-10-30 16:45:11.8960,1540932311.895576,0.12272272408859543,0.049533464694928794,0.031086546772276933,-0.0430908203125,-0.1245269775390625,-1.1437530517578125,45.64091491699219,25.488693237304688,-64.55766296386719,,,,,,,,,,
0,2018-10-30 16:45:07.9670,00:43,60,0,2018-10-30 16:45:11.9130,1540932311.913343,0.13121634375318514,-0.07138842986455506,-0.044024982296208895,-0.0430908203125,-0.1245269775390625,-1.1437530517578125,45.149993896484375,25.896026611328125,-64.72532653808594,,,,,,,,,,
0,2018-10-30 16:45:07.9670,00:43,60,0,2018-10-30 16:45:11.9290,1540932311.928927,-0.003262638651456075,-0.263298747492864,-0.14596120144451785,-0.0478363037109375,-0.1128692626953125,-1.1484527587890625,44.706024169921875,26.371566772460938,-64.9659423828125,,,,,,,,,,
0,2018-10-30 16:45:07.9670,00:43,60,0,2018-10-30 16:45:11.9460,1540932311.9456902,-0.5793698961984113,-0.32020251050458715,-0.22085301972307214,-0.0304412841796875,-0.138702392578125,-1.133148193359375,44.18231201171875,26.630172729492188,-65.0628662109375,,,,,,,,,,
0,2018-10-30 16:45:07.9670,00:43,60,0,2018-10-30 16:45:11.9620,1540932311.962259,-0.5793698961984113,-0.32020251050458715,-0.22085301972307214,-0.0304412841796875,-0.138702392578125,-1.133148193359375,43.60050964355469,27.210617065429688,-65.30706787109375,,,,,,,,,,
0,2018-10-30 16:45:07.9670,00:43,60,0,2018-10-30 16:45:11.9790,1540932311.9789948,-0.888605509334052,-0.2997209375091147,-0.0022975090724113587,0.160400390625,-0.14141845703125,-1.2438507080078125,43.16615295410156,27.996337890625,-64.98922729492188,,,,,,,,,,
0,2018-10-30 16:45:07.9670,00:43,60,0,2018-10-30 16:45:11.9960,1540932311.9960341,-1.391268909287129,-0.5868666946669843,0.522191561278301,0.0745086669921875,-0.0120391845703125,-1.2505645751953125,42.80540466308594,28.3798828125,-64.37008666992188,,,,,,,,,,
0,2018-10-30 16:45:07.9670,00:43,60,0,2018-10-30 16:45:12.0270,1540932312.026675,-0.6844276064604021,-0.2746941474812041,0.2814625713916405,-0.1561279296875,0.2628326416015625,-1.26947021484375,42.41999816894531,29.234024047851562,-63.890869140625,,,,,,,,,,
0,2018-10-30 16:45:07.9670,00:43,60,0,2018-10-30 16:45:12.0440,1540932312.043807,-0.1105856337366683,0.050177150730400945,0.15964691997032604,-0.151275634765625,0.2457275390625,-1.2068023681640625,41.87359619140625,29.963455200195312,-63.89344787597656,,,,,,,,,,
0,2018-10-30 16:45:07.9670,00:43,60,0,2018-10-30 16:45:12.0600,1540932312.06045,0.19740015789939833,0.16624942894485048,0.14686561095070877,-0.1016387939453125,0.1569366455078125,-1.1293792724609375,41.96055603027344,29.789932250976562,-64.28547668457031,,,,,,,,,,
0,2018-10-30 16:45:07.9670,00:43,60,0,2018-10-30 16:45:12.0770,1540932312.0770159,0.29486146746804714,0.09940861295771475,0.12855504687586897,-0.0511932373046875,0.0994415283203125,-1.050689697265625,41.88078308105469,29.573013305664062,-64.14178466796875,,,,,,,,,,
0,2018-10-30 16:45:07.9670,00:43,60,0,2018-10-30 16:45:12.0940,1540932312.093694,0.2889314066687677,0.022812637897618754,0.09312355278512775,-0.0335540771484375,0.0576324462890625,-0.96124267578125,41.88078308105469,29.573013305664062,-64.14178466796875,,,,,,,,,,
0,2018-10-30 16:45:07.9670,00:43,60,0,2018-10-30 16:45:12.1100,1540932312.110376,0.2649831968823392,-0.06759848531726328,0.039474705257699506,-0.036773681640625,0.0284423828125,-0.8965911865234375,41.47697448730469,29.49755859375,-64.0885009765625,,,,,,,,,,
0,2018-10-30 16:45:07.9670,00:43,60,0,2018-10-30 16:45:12.1270,1540932312.1273808,0.23224415865366807,-0.07907484540274175,0.012696886813061777,-0.0333251953125,-0.0069122314453125,-0.8332977294921875,41.08216857910156,29.34112548828125,-64.66221618652344,,,,,,,,,,
0,2018-10-30 16:45:07.9670,00:43,60,0,2018-10-30 16:45:12.1440,1540932312.144382,0.15005794214938675,-0.05905692875305215,0.07270962408134336,0.0050811767578125,-0.0458984375,-0.78314208984375,40.806427001953125,29.550933837890625,-64.66938781738281,,,,,,,,,,
0,2018-10-30 16:45:07.9670,00:43,60,0,2018-10-30 16:45:12.1610,1540932312.161154,0.044556282933679706,-0.029462018507328595,0.22804648414348516,0.053985595703125,-0.07525634765625,-0.7699737548828125,40.65960693359375,29.345703125,-65.15338134765625,,,,,,,,,,
0,2018-10-30 16:45:07.9670,00:43,60,0,2018-10-30 16:45:12.1780,1540932312.178113,-0.00367116756267423,0.040585776064480564,0.40804927590583184,0.0699462890625,-0.073944091796875,-0.7928924560546875,40.48698425292969,29.301727294921875,-65.32054138183594,,,,,,,,,,
0,2018-10-30 16:45:07.9670,00:43,60,0,2018-10-30 16:45:12.1950,1540932312.195261,0.033868484846973704,0.1306608083497946,0.5130958008912444,0.030548095703125,-0.046630859375,-0.826202392578125,40.47149658203125,29.382080078125,-65.4744873046875,,,,,,,,,,
0,2018-10-30 16:45:07.9670,00:43,60,0,2018-10-30 16:45:12.2120,1540932312.211674,0.12826689284592238,0.20198265918709768,0.5731293108160286,-0.011932373046875,-0.013153076171875,-0.86505126953125,40.47149658203125,29.382080078125,-65.4744873046875,,,,,,,,,,
0,2018-10-30 16:45:07.9670,00:43,60,0,2018-10-30 16:45:12.2280,1540932312.228393,0.20514383140102174,0.19576817278339778,0.5902369250264796,-0.04718017578125,-0.0091705322265625,-0.8841094970703125,40.561065673828125,29.208831787109375,-65.55412292480469,,,,,,,,,,
0,2018-10-30 16:45:07.9670,00:43,60,0,2018-10-30 16:45:12.2460,1540932312.245727,0.16533809521982537,0.10330748079359076,0.5462271227484842,-0.087615966796875,-0.01055908203125,-0.8791656494140625,40.82196044921875,29.079437255859375,-65.62281799316406,,,,,,,,,,
0,2018-10-30 16:45:07.9670,00:43,60,0,2018-10-30 16:45:12.2640,1540932312.26356,-0.020596088922345806,-0.06328762646075202,0.4582557214082237,-0.1078643798828125,-0.0139312744140625,-0.8674163818359375,40.785919189453125,28.930389404296875,-65.94256591796875,,,,,,,,,,
0,2018-10-30 16:45:07.9670,00:43,60,0,2018-10-30 16:45:12.2800,1540932312.280274,-0.2334822622444459,-0.1894673999603793,0.3360730863886963,-0.11553955078125,0.002288818359375,-0.8695068359375,40.66600036621094,29.264450073242188,-66.0927734375,,,,,,,,,,
0,2018-10-30 16:45:07.9670,00:43,60,0,2018-10-30 16:45:12.2960,1540932312.295881,-0.27505473949280085,-0.2696064445347167,0.19034704206843248,-0.1277008056640625,0.017120361328125,-0.9364471435546875,40.32597351074219,29.177001953125,-65.80227661132812,,,,,,,,,,
0,2018-10-30 16:45:07.9670,00:43,60,0,2018-10-30 16:45:12.3120,1540932312.3124552,-0.14923449274033423,-0.26911988500355927,0.037184120404122355,-0.141937255859375,0.0128173828125,-0.9930877685546875,40.32597351074219,29.177001953125,-65.80227661132812,,,,,,,,,,
0,2018-10-30 16:45:07.9670,00:43,60,0,2018-10-30 16:45:12.3290,1540932312.329144,0.07743913186121508,-0.4177732759940382,-0.11832877460607369,-0.0951385498046875,0.000579833984375,-1.1029205322265625,39.9530029296875,29.25006103515625,-66.05403137207031,,,,,,,,,,
0,2018-10-30 16:45:07.9670,00:43,60,0,2018-10-30 16:45:12.3460,1540932312.345724,0.24072419619669838,-0.2212817886585749,-0.14918069688631463,-0.1576690673828125,-0.075592041015625,-1.003997802734375,39.46861267089844,29.266876220703125,-66.54811096191406,,,,,,,,,,
0,2018-10-30 16:45:07.9670,00:43,60,0,2018-10-30 16:45:12.3620,1540932312.362493,0.23503035778610895,-0.05025145292481415,-0.1693147273595317,-0.114959716796875,-0.0881500244140625,-0.9879150390625,39.214263916015625,29.005767822265625,-66.80584716796875,,,,,,,,,,
0,2018-10-30 16:45:07.9670,00:43,60,0,2018-10-30 16:45:12.3790,1540932312.379226,0.12365749363121324,0.10541057910642633,-0.14982038818015167,-0.1180572509765625,-0.109222412109375,-0.9729766845703125,38.868377685546875,28.917709350585938,-67.21821594238281,,,,,,,,,,
0,2018-10-30 16:45:07.9670,00:43,60,0,2018-10-30 16:45:12.3960,1540932312.396038,0.05480439312441362,0.3165611703461218,-0.04352803643680011,-0.098876953125,-0.121185302734375,-1.01348876953125,38.84913635253906,28.688461303710938,-67.22779846191406,,,,,,,,,,
0,2018-10-30 16:45:07.9670,00:43,60,0,2018-10-30 16:45:12.4130,1540932312.412597,0.15935583646318038,0.452754962176665,-0.0016215987877492481,-0.125457763671875,-0.1072235107421875,-1.119873046875,38.87689208984375,28.52740478515625,-67.31036376953125,,,,,,,,,,
0,2018-10-30 16:45:07.9670,00:43,60,0,2018-10-30 16:45:12.4290,1540932312.4291492,0.2959232697946617,0.49815040716982867,-0.050858121021134205,-0.13470458984375,-0.0773773193359375,-1.2039337158203125,38.87689208984375,28.52740478515625,-67.31036376953125,,,,,,,,,,
0,2018-10-30 16:45:07.9670,00:43,60,0,2018-10-30 16:45:12.4470,1540932312.447083,0.32643830219700765,0.35766812703593087,-0.15598320925870404,-0.1092071533203125,-0.053680419921875,-1.230377197265625,38.962554931640625,28.353775024414062,-67.85856628417969,,,,,,,,,,
0,2018-10-30 16:45:07.9670,00:43,60,0,2018-10-30 16:45:12.4630,1540932312.462609,0.28680007884837727,0.14881184907533868,-0.30508108183511723,-0.111572265625,-0.041656494140625,-1.253662109375,38.7578125,28.1611328125,-67.87689208984375,,,,,,,,,,
0,2018-10-30 16:45:07.9670,00:43,60,0,2018-10-30 16:45:12.4790,1540932312.479161,0.21694056976563672,-0.02085068712255738,-0.44555643775018083,-0.1103515625,-0.0391082763671875,-1.2570037841796875,38.22773742675781,28.109848022460938,-68.14181518554688,,,,,,,,,,
0,2018-10-30 16:45:07.9670,00:43,60,0,2018-10-30 16:45:12.4980,1540932312.497658,0.11389754086829085,-0.0034104440919554726,-0.5022657900023282,-0.01300048828125,-0.1377716064453125,-1.184722900390625,37.912200927734375,27.861038208007812,-68.32437133789062,,,,,,,,,,
0,2018-10-30 16:45:07.9670,00:43,60,0,2018-10-30 16:45:12.5140,1540932312.5135221,0.003969175288654096,-0.01666899157891496,-0.439074836289146,-0.0335845947265625,-0.16986083984375,-1.213714599609375,37.2584228515625,27.834182739257812,-68.59510803222656,,,,,,,,,,
0,2018-10-30 16:45:07.9670,00:43,60,0,2018-10-30 16:45:12.5290,1540932312.529282,-0.1525903420299431,-0.1753044429672289,-0.4242407627012956,-0.16741943359375,-0.0935211181640625,-1.16644287109375,37.2584228515625,27.834182739257812,-68.59510803222656,,,,,,,,,,
0,2018-10-30 16:45:07.9670,00:43,60,0,2018-10-30 16:45:12.5460,1540932312.545908,-0.32807801048016944,-0.10772326819705114,-0.4037687770857475,-0.181732177734375,0.039825439453125,-1.132171630859375,37.061981201171875,27.951614379882812,-68.21112060546875,,,,,,,,,,
0,2018-10-30 16:45:07.9670,00:43,60,0,2018-10-30 16:45:12.5630,1540932312.562552,-0.3035854505669287,0.11310551676010128,-0.5073758635019722,-0.1893157958984375,0.095428466796875,-1.146484375,36.60792541503906,27.8076171875,-68.47535705566406,,,,,,,,,,
0,2018-10-30 16:45:07.9670,00:43,60,0,2018-10-30 16:45:12.5790,1540932312.5793,-0.007613178608209518,0.3928388976559533,-0.5756372096145562,-0.1258087158203125,0.0677490234375,-1.145965576171875,36.527496337890625,27.590652465820312,-68.40974426269531,,,,,,,,,,
0,2018-10-30 16:45:07.9670,00:43,60,0,2018-10-30 16:45:12.5960,1540932312.595907,0.34145453600341946,0.5190801901767614,-0.5252350217720435,-0.0602264404296875,0.0590362548828125,-1.07427978515625,36.3504638671875,27.236953735351562,-68.51060485839844,,,,,,,,,,
0,2018-10-30 16:45:07.9670,00:43,60,0,2018-10-30 16:45:12.6130,1540932312.612668,0.5266981624749331,0.5039715446805239,-0.43748759227945877,-0.0504608154296875,0.0509490966796875,-1.0096588134765625,36.29454040527344,26.858596801757812,-68.91801452636719,,,,,,,,,,
0,2018-10-30 16:45:07.9670,00:43,60,0,2018-10-30 16:45:12.6290,1540932312.629288,0.5764558653336466,0.428622994275021,-0.37762425834833063,-0.0570220947265625,0.031982421875,-0.9461669921875,36.29454040527344,26.858596801757812,-68.91801452636719,,,,,,,,,,
0,2018-10-30 16:45:07.9670,00:43,60,0,2018-10-30 16:45:12.6460,1540932312.6460161,0.507673338595734,0.4150166379496972,-0.32622311878092924,-0.0656280517578125,0.0103607177734375,-0.898040771484375,36.07234191894531,26.746124267578125,-69.32460021972656,,,,,,,,,,
0,2018-10-30 16:45:07.9670,00:43,60,0,2018-10-30 16:45:12.6640,1540932312.663696,0.37473792435890274,0.420387701236169,-0.26835795461568757,-0.04852294921875,-0.0106048583984375,-0.85162353515625,36.24577331542969,26.089813232421875,-69.57377624511719,,,,,,,,,,
0,2018-10-30 16:45:07.9670,00:43,60,0,2018-10-30 16:45:12.6790,1540932312.679483,0.1349554219236564,0.28925285021234026,-0.16887184367025151,-0.027740478515625,-0.02294921875,-0.8274688720703125,36.299957275390625,25.767578125,-69.89506530761719,,,,,,,,,,
0,2018-10-30 16:45:07.9670,00:43,60,0,2018-10-30 16:45:12.6960,1540932312.696162,-0.10466462768509513,-0.046277750262306926,-0.077133933600292,-0.015960693359375,-0.018463134765625,-0.85089111328125,36.28330993652344,25.538558959960938,-69.59226989746094,,,,,,,,,,
0,2018-10-30 16:45:07.9670,00:43,60,0,2018-10-30 16:45:12.7130,1540932312.712813,-0.10466462768509513,-0.046277750262306926,-0.077133933600292,-0.015960693359375,-0.018463134765625,-0.85089111328125,35.95098876953125,25.369979858398438,-70.08497619628906,,,,,,,,,,
0,2018-10-30 16:45:07.9670,00:43,60,0,2018-10-30 16:45:12.7290,1540932312.729264,-0.27411863836963796,-0.33467252997142366,-0.03996872163990921,-0.0214080810546875,0.0392913818359375,-0.8658447265625,35.95098876953125,25.369979858398438,-70.08497619628906,,,,,,,,,,
0,2018-10-30 16:45:07.9670,00:43,60,0,2018-10-30 16:45:12.7460,1540932312.7460299,-0.1951236877995986,-0.4575840721813057,-0.057273143454917075,-0.042724609375,0.045257568359375,-0.8756103515625,35.56706237792969,25.52386474609375,-69.94401550292969,,,,,,,,,,
0,2018-10-30 16:45:07.9670,00:43,60,0,2018-10-30 16:45:12.7630,1540932312.762538,-0.1951236877995986,-0.4575840721813057,-0.057273143454917075,-0.042724609375,0.045257568359375,-0.8756103515625,35.08721923828125,25.541107177734375,-69.89140319824219,,,,,,,,,,
0,2018-10-30 16:45:07.9670,00:43,60,0,2018-10-30 16:45:12.7790,1540932312.7793422,-0.012318185306052509,-0.31534756783737267,-0.09140927599144374,-0.0021514892578125,-0.0157470703125,-0.8493804931640625,34.8392333984375,25.589889526367188,-69.98115539550781,,,,,,,,,,
0,2018-10-30 16:45:07.9670,00:43,60,0,2018-10-30 16:45:12.7960,1540932312.796134,0.0347891396358141,-0.12235014785209333,-0.05156066291669711,0.00537109375,-0.0687103271484375,-0.8335723876953125,34.693695068359375,25.384796142578125,-70.30892944335938,,,,,,,,,,
0,2018-10-30 16:45:07.9670,00:43,60,0,2018-10-30 16:45:12.8130,1540932312.812693,0.0347891396358141,-0.12235014785209333,-0.05156066291669711,0.00537109375,-0.0687103271484375,-0.8335723876953125,34.44520568847656,25.124267578125,-69.86380004882812,,,,,,,,,,
0,2018-10-30 16:45:07.9670,00:43,60,0,2018-10-30 16:45:12.8290,1540932312.8293939,0.06692124345205613,-0.06648341976884711,-0.034365697022491495,-0.0196380615234375,-0.119293212890625,-0.8779449462890625,34.44520568847656,25.124267578125,-69.86380004882812,,,,,,,,,,
0,2018-10-30 16:45:07.9670,00:43,60,0,2018-10-30 16:45:12.8460,1540932312.8461962,0.16461611224830489,-0.0055851814381141784,-0.08036115220925003,-0.020233154296875,-0.1426544189453125,-0.91827392578125,34.45045471191406,24.733627319335938,-70.34640502929688,,,,,,,,,,
0,2018-10-30 16:45:07.9670,00:43,60,0,2018-10-30 16:45:12.8630,1540932312.862719,0.16461611224830489,-0.0055851814381141784,-0.08036115220925003,-0.018524169921875,-0.156036376953125,-0.9506378173828125,34.264312744140625,24.770187377929688,-70.43324279785156,,,,,,,,,,
0,2018-10-30 16:45:07.9670,00:43,60,0,2018-10-30 16:45:12.8800,1540932312.880365,0.2615290769485064,0.0643118782159965,-0.2109433973068873,-0.0236358642578125,-0.1692352294921875,-0.9947357177734375,34.36610412597656,24.516250610351562,-70.74937438964844,,,,,,,,,,
0,2018-10-30 16:45:07.9670,00:43,60,0,2018-10-30 16:45:12.8960,1540932312.895959,0.2615290769485064,0.0643118782159965,-0.2109433973068873,-0.0236358642578125,-0.1692352294921875,-0.9947357177734375,34.21879577636719,24.001708984375,-70.698486328125,,,,,,,,,,
0,2018-10-30 16:45:07.9670,00:43,60,0,2018-10-30 16:45:12.9130,1540932312.9126658,0.17966057556227152,-0.023294403738814088,-0.28599207577364727,-0.040985107421875,-0.164276123046875,-1.086212158203125,34.27867126464844,23.98931884765625,-70.92988586425781,,,,,,,,,,
0,2018-10-30 16:45:07.9670,00:43,60,0,2018-10-30 16:45:12.9290,1540932312.9293199,0.10243769238157087,-0.041081922975562325,-0.25065698811436693,-0.0219268798828125,-0.1635284423828125,-1.1361083984375,34.02693176269531,23.72845458984375,-70.87522888183594,,,,,,,,,,
0,2018-10-30 16:45:07.9670,00:43,60,0,2018-10-30 16:45:12.9460,1540932312.945969,0.10243769238157087,-0.041081922975562325,-0.25065698811436693,-0.0219268798828125,-0.1635284423828125,-1.1361083984375,34.02693176269531,23.72845458984375,-70.87522888183594,,,,,,,,,,
0,2018-10-30 16:45:07.9670,00:43,60,0,2018-10-30 16:45:12.9630,1540932312.962647,0.2666793641806106,0.10975632537321763,0.04290565569004859,-0.0190582275390625,-0.123992919921875,-1.231353759765625,33.93034362792969,23.591781616210938,-71.04168701171875,,,,,,,,,,
0,2018-10-30 16:45:07.9670,00:43,60,0,2018-10-30 16:45:12.9790,1540932312.979477,0.3626176119218431,0.12795743352725517,0.1296448123939294,-0.0516510009765625,-0.1069793701171875,-1.2375030517578125,33.80096435546875,23.306365966796875,-71.13740539550781,,,,,,,,,,
0,2018-10-30 16:45:07.9670,00:43,60,0,2018-10-30 16:45:12.9960,1540932312.996058,0.3626176119218431,0.12795743352725517,0.1296448123939294,-0.02545166015625,-0.1673431396484375,-1.2041015625,34.14509582519531,22.693832397460938,-71.4537353515625,,,,,,,,,,
0,2018-10-30 16:45:07.9670,00:43,60,0,2018-10-30 16:45:13.0130,1540932313.012769,0.20881047158984284,-0.01655580723258659,0.39293557040352317,0.013458251953125,-0.239349365234375,-1.162567138671875,34.310028076171875,22.42779541015625,-71.61077880859375,,,,,,,,,,
0,2018-10-30 16:45:07.9670,00:43,60,0,2018-10-30 16:45:13.0290,1540932313.029434,-0.035000061994148374,-0.1154222005923612,0.5470764048201104,0.0687408447265625,-0.25115966796875,-1.12030029296875,34.357025146484375,22.496017456054688,-71.68376159667969,,,,,,,,,,
0,2018-10-30 16:45:07.9670,00:43,60,0,2018-10-30 16:45:13.0460,1540932313.0460482,-0.035000061994148374,-0.1154222005923612,0.5470764048201104,0.05633544921875,-0.14996337890625,-1.12548828125,34.357025146484375,22.496017456054688,-71.68376159667969,,,,,,,,,,
0,2018-10-30 16:45:07.9670,00:43,60,0,2018-10-30 16:45:13.0630,1540932313.062718,-0.23059379772614597,-0.06266204992069241,0.5354090960844733,0.038330078125,-0.0740814208984375,-1.144866943359375,34.3751220703125,22.415908813476562,-71.21739196777344,,,,,,,,,,
0,2018-10-30 16:45:07.9670,00:43,60,0,2018-10-30 16:45:13.0800,1540932313.079526,-0.012545352947036268,-0.01539280478454899,0.3630061671248857,0.01251220703125,0.00384521484375,-1.1812896728515625,34.47953796386719,22.1622314453125,-71.22114562988281,,,,,,,,,,
0,2018-10-30 16:45:07.9670,00:43,60,0,2018-10-30 16:45:13.0980,1540932313.097616,0.27208744540623453,0.04109177667159562,0.16061444639435182,-0.0855865478515625,0.066009521484375,-1.150115966796875,34.505340576171875,22.0009765625,-71.53799438476562,,,,,,,,,,
0,2018-10-30 16:45:07.9670,00:43,60,0,2018-10-30 16:45:13.1150,1540932313.1146069,0.45993191499831954,0.04703568590854347,0.11667122314360837,-0.1260986328125,0.0385284423828125,-1.0783538818359375,34.67158508300781,21.735092163085938,-71.53884887695312,,,,,,,,,,
0,2018-10-30 16:45:07.9670,00:43,60,0,2018-10-30 16:45:13.1300,1540932313.130336,0.490833904707054,0.08240219886868674,0.12420344165467948,-0.0807037353515625,0.01055908203125,-0.96875,34.79804992675781,21.010543823242188,-71.71507263183594,,,,,,,,,,
0,2018-10-30 16:45:07.9670,00:43,60,0,2018-10-30 16:45:13.1460,1540932313.1462932,0.4071730959071958,0.06872873088389292,0.22808030628932918,-0.0495147705078125,-0.0334625244140625,-0.8886566162109375,34.79804992675781,21.010543823242188,-71.71507263183594,,,,,,,,,,
0,2018-10-30 16:45:07.9670,00:43,60,0,2018-10-30 16:45:13.1630,1540932313.162787,0.21155832120258658,0.04409076237513385,0.3673090364981267,0.01617431640625,-0.07135009765625,-0.8440399169921875,34.85664367675781,20.998016357421875,-72.10264587402344,,,,,,,,,,
0,2018-10-30 16:45:07.9670,00:43,60,0,2018-10-30 16:45:13.1800,1540932313.179613,-0.031347003926886684,0.02549896848918168,0.46050955463875776,0.0330047607421875,-0.076202392578125,-0.8257598876953125,34.88697814941406,20.83721923828125,-71.872802734375,,,,,,,,,,
0,2018-10-30 16:45:07.9670,00:43,60,0,2018-10-30 16:45:13.1960,1540932313.196035,-0.23399864917981225,0.005794772215903414,0.46481748401806994,0.042755126953125,-0.074920654296875,-0.8544921875,34.978515625,20.664138793945312,-71.71815490722656,,,,,,,,,,
0,2018-10-30 16:45:07.9670,00:43,60,0,2018-10-30 16:45:13.2130,1540932313.212861,-0.3860821916543133,0.08309142495879926,0.4338944553367238,-0.0021514892578125,-0.0372467041015625,-0.8519439697265625,35.337921142578125,20.671630859375,-71.38607788085938,,,,,,,,,,
0,2018-10-30 16:45:07.9670,00:43,60,0,2018-10-30 16:45:13.2300,1540932313.2295861,-0.47365678199215194,0.07531339667911384,0.4253390503348443,0.0369873046875,-0.0440216064453125,-0.902740478515625,35.29273986816406,20.912857055664062,-71.69178771972656,,,,,,,,,,
0,2018-10-30 16:45:07.9670,00:43,60,0,2018-10-30 16:45:13.2460,1540932313.246228,-0.49719113654518216,0.022844595830699706,0.3492488095657543,0.02655029296875,-0.0194244384765625,-0.929351806640625,35.29273986816406,20.912857055664062,-71.69178771972656,,,,,,,,,,
0,2018-10-30 16:45:07.9670,00:43,60,0,2018-10-30 16:45:13.2630,1540932313.262845,-0.40684233129980796,0.06580298211033186,0.2089971591822574,-0.03167724609375,0.0272216796875,-0.927947998046875,35.54072570800781,20.86407470703125,-71.60205078125,,,,,,,,,,
0,2018-10-30 16:45:07.9670,00:43,60,0,2018-10-30 16:45:13.2830,1540932313.2828689,-0.23481517437003055,0.1758317488630646,0.14055631601220203,-0.041900634765625,0.012115478515625,-0.9119110107421875,35.595367431640625,21.242294311523438,-71.350830078125,,,,,,,,,,
0,2018-10-30 16:45:07.9670,00:43,60,0,2018-10-30 16:45:13.2840,1540932313.284195,-0.23481517437003055,0.1758317488630646,0.14055631601220203,-0.041900634765625,0.012115478515625,-0.9119110107421875,35.595367431640625,21.242294311523438,-71.350830078125,,,,,,,,,,
0,2018-10-30 16:45:07.9670,00:43,60,0,2018-10-30 16:45:13.3020,1540932313.301526,-0.034832815477691396,0.250659384959348,0.15237995230382684,-0.0241546630859375,-0.097442626953125,-0.8769989013671875,35.95155334472656,21.249465942382812,-71.40925598144531,,,,,,,,,,
0,2018-10-30 16:45:07.9670,00:43,60,0,2018-10-30 16:45:13.3310,1540932313.331198,0.11675777587903595,0.1193341179175786,0.17145697414039143,-0.0503082275390625,-0.1262664794921875,-0.8380126953125,36.2506103515625,20.568893432617188,-71.41831970214844,,,,,,,,,,
0,2018-10-30 16:45:07.9670,00:43,60,0,2018-10-30 16:45:13.3480,1540932313.34798,0.03180346973772626,-0.06141089684057319,0.13377430998020626,-0.08624267578125,-0.1453094482421875,-0.83697509765625,36.11338806152344,20.67388916015625,-71.34381103515625,,,,,,,,,,
0,2018-10-30 16:45:07.9670,00:43,60,0,2018-10-30 16:45:13.3640,1540932313.364472,-0.053200104883749884,-0.14362188074299226,0.06944165910770712,-0.0699462890625,-0.1354522705078125,-0.8420562744140625,36.11338806152344,20.67388916015625,-71.34381103515625,,,,,,,,,,
0,2018-10-30 16:45:07.9670,00:43,60,0,2018-10-30 16:45:13.3810,1540932313.380817,-0.0309813519092188,-0.14263358166246384,0.039453399968978876,-0.0744476318359375,-0.14593505859375,-0.9792022705078125,36.19792175292969,20.19085693359375,-71.43525695800781,,,,,,,,,,
0,2018-10-30 16:45:07.9670,00:43,60,0,2018-10-30 16:45:13.3980,1540932313.397872,0.1121790030168627,-0.060680924385782466,0.02881140825302224,-0.0744476318359375,-0.14593505859375,-0.9792022705078125,36.24424743652344,20.259002685546875,-71.5863037109375,,,,,,,,,,
0,2018-10-30 16:45:07.9670,00:43,60,0,2018-10-30 16:45:13.4140,1540932313.414439,0.2681768596615622,0.044866807516782944,0.03747094285352389,-0.0535736083984375,-0.1593170166015625,-1.034393310546875,36.17607116699219,19.961334228515625,-71.75723266601562,,,,,,,,,,
0,2018-10-30 16:45:07.9670,00:43,60,0,2018-10-30 16:45:13.4310,1540932313.430876,0.3351311263111353,0.10045070789226275,0.041806835424281895,-0.0237884521484375,-0.1837615966796875,-1.0623931884765625,36.419647216796875,19.602859497070312,-71.60121154785156,,,,,,,,,,
0,2018-10-30 16:45:07.9670,00:43,60,0,2018-10-30 16:45:13.4480,1540932313.4476051,0.3016053902964548,0.120288594852263,0.030059898172051385,-0.0237884521484375,-0.1837615966796875,-1.0623931884765625,36.55751037597656,19.497955322265625,-71.59759521484375,,,,,,,,,,
0,2018-10-30 16:45:07.9670,00:43,60,0,2018-10-30 16:45:13.4640,1540932313.46448,0.2471181796578696,0.1511823287616182,0.008693889378563673,-0.0105133056640625,-0.1915740966796875,-1.079864501953125,36.55751037597656,19.497955322265625,-71.59759521484375,,,,,,,,,,
0,2018-10-30 16:45:07.9670,00:43,60,0,2018-10-30 16:45:13.4810,1540932313.481005,0.14246979725542397,0.20142898799647022,-0.13364354877068335,-0.024505615234375,-0.146392822265625,-1.133331298828125,36.661285400390625,19.24420166015625,-71.67948913574219,,,,,,,,,,
0,2018-10-30 16:45:07.9670,00:43,60,0,2018-10-30 16:45:13.4980,1540932313.49768,0.14246979725542397,0.20142898799647022,-0.13364354877068335,-0.024505615234375,-0.146392822265625,-1.133331298828125,36.79347229003906,18.829452514648438,-71.76579284667969,,,,,,,,,,
0,2018-10-30 16:45:07.9670,00:43,60,0,2018-10-30 16:45:13.5170,1540932313.5169969,0.10235593333610545,0.1815290493830711,-0.20005186739679023,-0.014617919921875,-0.1595001220703125,-1.164947509765625,36.836700439453125,18.588058471679688,-71.69436645507812,,,,,,,,,,
0,2018-10-30 16:45:07.9670,00:43,60,0,2018-10-30 16:45:13.5470,1540932313.546794,-0.041672345789232894,0.17090037347256487,-0.44204505985291137,-0.0526580810546875,-0.136077880859375,-1.1684417724609375,37.11619567871094,18.6878662109375,-71.83157348632812,,,,,,,,,,
0,2018-10-30 16:45:07.9670,00:43,60,0,2018-10-30 16:45:13.5640,1540932313.564063,-0.14066017929471514,0.15080522515126296,-0.5887540769315235,-0.126190185546875,-0.19073486328125,-1.21270751953125,37.11619567871094,18.6878662109375,-71.83157348632812,,,,,,,,,,
0,2018-10-30 16:45:07.9670,00:43,60,0,2018-10-30 16:45:13.5800,1540932313.5795069,-0.25036989934885634,0.03187244560995931,-0.6070790220762496,-0.126190185546875,-0.19073486328125,-1.21270751953125,36.96099853515625,18.563705444335938,-71.61044311523438,,,,,,,,,,
0,2018-10-30 16:45:07.9670,00:43,60,0,2018-10-30 16:45:13.5970,1540932313.5965219,-0.32572883608261055,-0.11263120776995816,-0.5344205306878359,-0.1077423095703125,-0.165191650390625,-1.2235565185546875,36.74775695800781,18.761383056640625,-71.53663635253906,,,,,,,,,,
0,2018-10-30 16:45:07.9670,00:43,60,0,2018-10-30 16:45:13.6130,1540932313.61322,-0.1714053088152439,-0.039003858376973496,-0.38337535472235673,-0.0687255859375,-0.0733489990234375,-1.17864990234375,36.68658447265625,18.773666381835938,-71.46144104003906,,,,,,,,,,
0,2018-10-30 16:45:07.9670,00:43,60,0,2018-10-30 16:45:13.6300,1540932313.6296802,-0.1714053088152439,-0.039003858376973496,-0.38337535472235673,-0.0687255859375,-0.0733489990234375,-1.17864990234375,36.60614013671875,18.556655883789062,-71.39584350585938,,,,,,,,,,
0,2018-10-30 16:45:07.9670,00:43,60,0,2018-10-30 16:45:13.6470,1540932313.646501,-0.006119677868893081,0.05014918753895511,-0.3543919062629154,-0.0731353759765625,0.00341796875,-1.0943603515625,36.689178466796875,18.773910522460938,-71.1490478515625,,,,,,,,,,
0,2018-10-30 16:45:07.9670,00:43,60,0,2018-10-30 16:45:13.6630,1540932313.663116,0.16104774270370772,0.10486116897354299,-0.37256931228325124,-0.083251953125,0.044525146484375,-1.01287841796875,36.689178466796875,18.773910522460938,-71.1490478515625,,,,,,,,,,
0,2018-10-30 16:45:07.9670,00:43,60,0,2018-10-30 16:45:13.6800,1540932313.679729,0.16104774270370772,0.10486116897354299,-0.37256931228325124,-0.083251953125,0.044525146484375,-1.01287841796875,36.67906188964844,18.154373168945312,-71.17266845703125,,,,,,,,,,
0,2018-10-30 16:45:07.9670,00:43,60,0,2018-10-30 16:45:13.6960,1540932313.696465,0.1632850643354833,0.12314137301195588,-0.35113006655978635,-0.040008544921875,0.022369384765625,-0.936920166015625,36.815643310546875,18.049346923828125,-71.32527160644531,,,,,,,,,,
0,2018-10-30 16:45:07.9670,00:43,60,0,2018-10-30 16:45:13.7130,1540932313.713186,0.0745322915313936,0.14810770928312172,-0.16046451042498036,-0.00836181640625,-0.0233306884765625,-0.9288330078125,36.800140380859375,18.129714965820312,-71.47923278808594,,,,,,,,,,
0,2018-10-30 16:45:07.9670,00:43,60,0,2018-10-30 16:45:13.7300,1540932313.729745,0.0745322915313936,0.14810770928312172,-0.16046451042498036,-0.00836181640625,-0.0233306884765625,-0.9288330078125,36.87371826171875,17.727493286132812,-71.17796325683594,,,,,,,,,,
0,2018-10-30 16:45:07.9670,00:43,60,0,2018-10-30 16:45:13.7460,1540932313.746455,-0.12205080854556843,0.03245248209537857,0.0214866499908683,0.0171051025390625,-0.0216217041015625,-0.8641815185546875,37.01225280761719,17.622665405273438,-71.09628295898438,,,,,,,,,,
0,2018-10-30 16:45:07.9670,00:43,60,0,2018-10-30 16:45:13.7630,1540932313.7631931,-0.16299717662164573,-0.05377321715033494,0.04387824212014553,0.0218505859375,-0.025848388671875,-0.8238372802734375,37.01225280761719,17.622665405273438,-71.09628295898438,,,,,,,,,,
0,2018-10-30 16:45:07.9670,00:43,60,0,2018-10-30 16:45:13.7810,1540932313.7807941,-0.16299717662164573,-0.05377321715033494,0.04387824212014553,0.0446319580078125,-0.0473480224609375,-0.8008270263671875,36.88136291503906,18.037521362304688,-70.85377502441406,,,,,,,,,,
0,2018-10-30 16:45:07.9670,00:43,60,0,2018-10-30 16:45:13.7970,1540932313.7974892,-0.277211899975765,-0.19231165600458394,0.0705063909115208,0.0797882080078125,-0.0769195556640625,-0.7710418701171875,36.907806396484375,17.876358032226562,-71.09251403808594,,,,,,,,,,
0,2018-10-30 16:45:07.9670,00:43,60,0,2018-10-30 16:45:13.8140,1540932313.81439,-0.3227772546464757,-0.2188588446988208,0.05656341102441095,0.075714111328125,-0.085693359375,-0.7575531005859375,36.94258117675781,18.025238037109375,-70.92897033691406,,,,,,,,,,
0,2018-10-30 16:45:07.9670,00:43,60,0,2018-10-30 16:45:13.8300,1540932313.829575,-0.3227772546464757,-0.2188588446988208,0.05656341102441095,0.0343780517578125,-0.07940673828125,-0.7618255615234375,36.69781494140625,18.0743408203125,-70.62823486328125,,,,,,,,,,
0,2018-10-30 16:45:07.9670,00:43,60,0,2018-10-30 16:45:13.8470,1540932313.846554,-0.40883943580125837,-0.43264330225660463,-0.10109625814049795,0.0081024169921875,-0.0927581787109375,-0.7929534912109375,36.74168395996094,17.832992553710938,-70.47869873046875,,,,,,,,,,
0,2018-10-30 16:45:07.9670,00:43,60,0,2018-10-30 16:45:13.8630,1540932313.86314,-0.5039294667353006,-0.46078838760488905,-0.1375173828923126,-0.0014801025390625,-0.11358642578125,-0.811920166015625,36.22367858886719,18.40142822265625,-70.48570251464844,,,,,,,,,,
0,2018-10-30 16:45:07.9670,00:43,60,0,2018-10-30 16:45:13.8800,1540932313.879737,-0.5429064271852644,-0.3436604323343321,-0.12237145314081398,-0.006866455078125,-0.12725830078125,-0.8369903564453125,36.22367858886719,18.40142822265625,-70.48570251464844,,,,,,,,,,
0,2018-10-30 16:45:07.9670,00:43,60,0,2018-10-30 16:45:13.8960,1540932313.8964171,-0.44681265083637123,-0.10880477791573231,-0.11889229949273446,-0.0206298828125,-0.1096649169921875,-0.88714599609375,36.10374450683594,18.735488891601562,-70.63592529296875,,,,,,,,,,
0,2018-10-30 16:45:07.9670,00:43,60,0,2018-10-30 16:45:13.9130,1540932313.913254,-0.2187115718905394,0.1453643870442311,-0.12291713484817121,-0.037200927734375,-0.0851593017578125,-0.9624176025390625,36.20166015625,18.872314453125,-70.31327819824219,,,,,,,,,,
0,2018-10-30 16:45:07.9670,00:43,60,0,2018-10-30 16:45:13.9300,1540932313.929903,0.09812683352505962,0.2950529487504238,-0.1784935783725988,-0.040618896484375,-0.073333740234375,-1.0445098876953125,36.27702331542969,18.779525756835938,-70.39067077636719,,,,,,,,,,
0,2018-10-30 16:45:07.9670,00:43,60,0,2018-10-30 16:45:13.9470,1540932313.946526,0.37055942460856844,0.32400177611569414,-0.22778309751167633,-0.0224609375,-0.09735107421875,-1.0926513671875,36.656524658203125,18.315948486328125,-70.46534729003906,,,,,,,,,,
0,2018-10-30 16:45:07.9670,00:43,60,0,2018-10-30 16:45:13.9630,1540932313.963273,0.4786752427502972,0.2742659111779194,-0.22144530674950577,0.0021209716796875,-0.1395263671875,-1.0912017822265625,36.59600830078125,18.328292846679688,-70.31205749511719,,,,,,,,,,
0,2018-10-30 16:45:07.9670,00:43,60,0,2018-10-30 16:45:13.9800,1540932313.979882,0.4044540084342249,0.24553066933207338,-0.16042376406030215,0.008575439453125,-0.1732177734375,-1.0644378662109375,36.59600830078125,18.328292846679688,-70.31205749511719,,,,,,,,,,
0,2018-10-30 16:45:07.9670,00:43,60,0,2018-10-30 16:45:13.9970,1540932313.9965801,0.27895493890922185,0.26156076856547833,-0.08113000681595589,0.009796142578125,-0.180633544921875,-1.0680999755859375,36.75965881347656,18.0621337890625,-70.62532043457031,,,,,,,,,,
0,2018-10-30 16:45:07.9670,00:43,60,0,2018-10-30 16:45:14.0130,1540932314.013228,0.22492206355260422,0.2520450276745162,-0.006168413716841532,0.02508544921875,-0.1584625244140625,-1.13470458984375,37.08302307128906,17.92059326171875,-70.61300659179688,,,,,,,,,,
0,2018-10-30 16:45:07.9670,00:43,60,0,2018-10-30 16:45:14.0310,1540932314.030894,0.2592265078700239,0.21257218662957975,0.04517600051934114,0.0455322265625,-0.13470458984375,-1.1970672607421875,37.339508056640625,17.48150634765625,-70.61540222167969,,,,,,,,,,
0,2018-10-30 16:45:07.9670,00:43,60,0,2018-10-30 16:45:14.0460,1540932314.046432,0.31111207643971067,0.1372374846617453,0.09647194522368437,0.0630035400390625,-0.133636474609375,-1.2318115234375,37.54246520996094,17.364700317382812,-70.21839904785156,,,,,,,,,,
0,2018-10-30 16:45:07.9670,00:43,60,0,2018-10-30 16:45:14.0650,1540932314.065127,0.22365679571870756,-0.05268904427056368,0.19691972363874805,0.1614532470703125,-0.1290740966796875,-1.211029052734375,37.640533447265625,16.801101684570312,-70.39016723632812,,,,,,,,,,
0,2018-10-30 16:45:07.9670,00:43,60,0,2018-10-30 16:45:14.0810,1540932314.081036,-0.02201928220888415,-0.34090485955442706,0.37224467294637054,0.1786346435546875,-0.1890716552734375,-1.211669921875,37.640533447265625,16.801101684570312,-70.39016723632812,,,,,,,,,,
0,2018-10-30 16:45:07.9670,00:43,60,0,2018-10-30 16:45:14.0970,1540932314.097121,-0.2724805279831302,-0.5739897781642331,0.5669142917801107,0.1685791015625,-0.202362060546875,-1.212158203125,37.61213684082031,16.96209716796875,-70.38571166992188,,,,,,,,,,
0,2018-10-30 16:45:07.9670,00:43,60,0,2018-10-30 16:45:14.1130,1540932314.113375,-0.40276263482591557,-0.6227075166172706,0.6204286496724899,0.112518310546875,-0.11767578125,-1.2095794677734375,37.25970458984375,17.264556884765625,-70.4716796875,,,,,,,,,,
0,2018-10-30 16:45:07.9670,00:43,60,0,2018-10-30 16:45:14.1300,1540932314.1301,-0.3299909590911734,-0.5194301295439978,0.5852000884568127,0.07275390625,-0.026580810546875,-1.2254791259765625,37.15919494628906,17.518646240234375,-69.99934387207031,,,,,,,,,,
0,2018-10-30 16:45:07.9670,00:43,60,0,2018-10-30 16:45:14.1470,1540932314.146775,-0.1663873806893166,-0.4135526982984806,0.49319719385839034,0.0670013427734375,0.0511627197265625,-1.25018310546875,37.26231384277344,17.264816284179688,-70.1593017578125,,,,,,,,,,
0,2018-10-30 16:45:07.9670,00:43,60,0,2018-10-30 16:45:14.1630,1540932314.1632829,0.01751161574781603,-0.2957067547980383,0.3348107480319988,0.0270233154296875,0.0989837646484375,-1.2399139404296875,37.01301574707031,17.3134765625,-70.40522766113281,,,,,,,,,,
0,2018-10-30 16:45:07.9670,00:43,60,0,2018-10-30 16:45:14.1830,1540932314.183069,0.1868894600251826,-0.1422125358941223,0.2225188269849167,-0.017547607421875,0.0879974365234375,-1.1785125732421875,37.05560302734375,17.072006225585938,-70.41189575195312,,,,,,,,,,
0,2018-10-30 16:45:07.9670,00:43,60,0,2018-10-30 16:45:14.1840,1540932314.184195,0.27505154369949275,0.040707748842406195,0.24949478461465632,-0.0184478759765625,0.0514373779296875,-1.0821685791015625,37.05560302734375,17.072006225585938,-70.41189575195312,,,,,,,,,,
0,2018-10-30 16:45:07.9670,00:43,60,0,2018-10-30 16:45:14.2130,1540932314.212847,0.29434880895820686,0.20243406499186611,0.3321459890452655,-0.0200042724609375,0.0263214111328125,-1.0058746337890625,37.38093566894531,16.930648803710938,-70.165283203125,,,,,,,,,,
0,2018-10-30 16:45:07.9670,00:43,60,0,2018-10-30 16:45:14.2300,1540932314.2302961,0.2928297418724257,0.2736635041393434,0.3750686889662906,-0.0288543701171875,0.0096588134765625,-0.9653167724609375,37.85638427734375,16.603683471679688,-70.151611328125,,,,,,,,,,
0,2018-10-30 16:45:07.9670,00:43,60,0,2018-10-30 16:45:14.2470,1540932314.246732,0.26563327450442753,0.3072659391934182,0.4222346034521389,-0.0163726806640625,-0.0396575927734375,-0.936126708984375,38.051025390625,16.17681884765625,-70.15692138671875,,,,,,,,,,
0,2018-10-30 16:45:07.9670,00:43,60,0,2018-10-30 16:45:14.2630,1540932314.263166,0.11267248676685439,0.3224094720999358,0.5186676665239082,0.021026611328125,-0.095794677734375,-0.8858489990234375,38.36021423339844,16.115768432617188,-70.14236450195312,,,,,,,,,,
0,2018-10-30 16:45:07.9670,00:43,60,0,2018-10-30 16:45:14.2790,1540932314.279351,-0.1461814448666674,0.28566051221793237,0.5925741151991332,0.0299530029296875,-0.1150054931640625,-0.8627777099609375,38.36021423339844,16.115768432617188,-70.14236450195312,,,,,,,,,,
0,2018-10-30 16:45:07.9670,00:43,60,0,2018-10-30 16:45:14.2960,1540932314.295928,-0.38450506765676834,0.28043246068199784,0.5787038396097824,-0.0019989013671875,-0.0177001953125,-0.9102630615234375,38.65779113769531,16.135452270507812,-69.81320190429688,,,,,,,,,,
0,2018-10-30 16:45:07.9670,00:43,60,0,2018-10-30 16:45:14.3130,1540932314.312623,-0.45462396862968263,0.20042604152994636,0.4683232692770502,-0.0019989013671875,-0.0177001953125,-0.9102630615234375,39.020965576171875,16.452560424804688,-69.62551879882812,,,,,,,,,,
0,2018-10-30 16:45:07.9670,00:43,60,0,2018-10-30 16:45:14.3290,1540932314.329239,-0.311595706493669,0.11761344953727841,0.2775732909356888,-0.0375823974609375,0.0208740234375,-0.9575042724609375,39.347442626953125,16.620590209960938,-69.83567810058594,,,,,,,,,,
0,2018-10-30 16:45:07.9670,00:43,60,0,2018-10-30 16:45:14.3460,1540932314.3461761,-0.06350600567013852,0.008675513567042126,0.14673405079285884,-0.0665130615234375,-0.050628662109375,-0.9125518798828125,39.345489501953125,16.620391845703125,-70.06997680664062,,,,,,,,,,
0,2018-10-30 16:45:07.9670,00:43,60,0,2018-10-30 16:45:14.3620,1540932314.362485,0.10208855196266149,0.007197459162048149,0.1188499552314022,-0.0665130615234375,-0.050628662109375,-0.9125518798828125,39.57746887207031,16.342666625976562,-69.59933471679688,,,,,,,,,,
0,2018-10-30 16:45:07.9670,00:43,60,0,2018-10-30 16:45:14.3790,1540932314.3787751,0.14826403683910935,-0.009576993596033949,0.1455896904724518,-0.0481109619140625,-0.0949554443359375,-0.8455657958984375,39.57746887207031,16.342666625976562,-69.59933471679688,,,,,,,,,,
0,2018-10-30 16:45:07.9670,00:43,60,0,2018-10-30 16:45:14.3980,1540932314.397603,0.08789736546195624,-0.2301085697755335,0.2609852594539122,-0.0643310546875,-0.1887969970703125,-0.8394317626953125,39.51499938964844,16.354812622070312,-69.68034362792969,,,,,,,,,,
0,2018-10-30 16:45:07.9670,00:43,60,0,2018-10-30 16:45:14.4150,1540932314.414606,0.08789736546195624,-0.2301085697755335,0.2609852594539122,-0.0643310546875,-0.1887969970703125,-0.8394317626953125,39.623199462890625,16.410751342773438,-69.8284912109375,,,,,,,,,,
0,2018-10-30 16:45:07.9670,00:43,60,0,2018-10-30 16:45:14.4300,1540932314.430007,0.041421209698438426,-0.35075988716826534,0.2501390032823465,-0.0982666015625,-0.1719512939453125,-0.8751983642578125,39.663177490234375,16.169021606445312,-70.14755249023438,,,,,,,,,,
0,2018-10-30 16:45:07.9670,00:43,60,0,2018-10-30 16:45:14.4470,1540932314.446848,0.11643739759989942,-0.24194605450482673,0.17743656973594635,-0.1098175048828125,-0.16595458984375,-0.9284515380859375,39.7064208984375,15.9276123046875,-70.07614135742188,,,,,,,,,,
0,2018-10-30 16:45:07.9670,00:43,60,0,2018-10-30 16:45:14.4630,1540932314.463427,0.11643739759989942,-0.24194605450482673,0.17743656973594635,-0.1098175048828125,-0.16595458984375,-0.9284515380859375,39.50227355957031,15.73504638671875,-70.01634216308594,,,,,,,,,,
0,2018-10-30 16:45:07.9670,00:43,60,0,2018-10-30 16:45:14.4800,1540932314.480073,0.28872181589097845,-0.10169467043743877,0.12402500986164416,-0.0902252197265625,-0.1809844970703125,-1.02008056640625,39.48808288574219,15.815536499023438,-70.01411437988281,,,,,,,,,,
0,2018-10-30 16:45:07.9670,00:43,60,0,2018-10-30 16:45:14.4970,1540932314.496764,0.40834595205126667,0.15479437414809266,0.07076951122722064,-0.08355712890625,-0.1785125732421875,-1.033233642578125,39.48808288574219,15.815536499023438,-70.01411437988281,,,,,,,,,,
0,2018-10-30 16:45:07.9670,00:43,60,0,2018-10-30 16:45:14.5140,1540932314.513535,0.40834595205126667,0.15479437414809266,0.07076951122722064,-0.08355712890625,-0.1785125732421875,-1.033233642578125,39.91328430175781,15.4200439453125,-70.31796264648438,,,,,,,,,,
0,2018-10-30 16:45:07.9670,00:43,60,0,2018-10-30 16:45:14.5320,1540932314.532038,0.294050534916118,0.3183556082886172,0.015313975216282643,-0.0611724853515625,-0.147430419921875,-1.110504150390625,40.2998046875,15.26641845703125,-70.14653015136719,,,,,,,,,,
0,2018-10-30 16:45:07.9670,00:43,60,0,2018-10-30 16:45:14.5340,1540932314.5341759,0.294050534916118,0.3183556082886172,0.015313975216282643,-0.0611724853515625,-0.147430419921875,-1.110504150390625,40.2998046875,15.26641845703125,-70.14653015136719,,,,,,,,,,
0,2018-10-30 16:45:07.9670,00:43,60,0,2018-10-30 16:45:14.5640,1540932314.563554,0.28190731929368373,0.35233621221748324,-0.06816840179054025,-0.0638580322265625,-0.1042327880859375,-1.1988677978515625,40.830078125,14.617294311523438,-70.37602233886719,,,,,,,,,,
0,2018-10-30 16:45:07.9670,00:43,60,0,2018-10-30 16:45:14.5800,1540932314.580285,0.2613780757146989,0.3811691920753351,-0.19663130329269246,-0.0997314453125,-0.134979248046875,-1.2178497314453125,41.19012451171875,14.624862670898438,-69.96585083007812,,,,,,,,,,
0,2018-10-30 16:45:07.9670,00:43,60,0,2018-10-30 16:45:14.5970,1540932314.596956,0.08660679759770384,0.39711327120553047,-0.24797092383891298,-0.02325439453125,-0.107421875,-1.1659393310546875,41.19012451171875,14.624862670898438,-69.96585083007812,,,,,,,,,,
0,2018-10-30 16:45:07.9670,00:43,60,0,2018-10-30 16:45:14.6160,1540932314.61642,-0.08236757777451571,0.2677233233279217,-0.21382227444526294,-0.004425048828125,-0.1837310791015625,-1.1930999755859375,41.31510925292969,14.600570678710938,-69.80384826660156,,,,,,,,,,
0,2018-10-30 16:45:07.9670,00:43,60,0,2018-10-30 16:45:14.6180,1540932314.618289,-0.08236757777451571,0.2677233233279217,-0.21382227444526294,-0.004425048828125,-0.1837310791015625,-1.1930999755859375,41.40974426269531,14.737060546875,-69.87168884277344,,,,,,,,,,
0,2018-10-30 16:45:07.9670,00:43,60,0,2018-10-30 16:45:14.6370,1540932314.636857,-0.24285312717210772,0.023781229586080574,-0.22479316655584436,-0.043182373046875,-0.160308837890625,-1.2213897705078125,41.40974426269531,14.737060546875,-69.87168884277344,,,,,,,,,,
0,2018-10-30 16:45:07.9670,00:43,60,0,2018-10-30 16:45:14.6520,1540932314.6520882,-0.28635453199800703,-0.02731577698483374,-0.32550672844769796,-0.1273345947265625,-0.071258544921875,-1.207611083984375,41.41481018066406,15.04681396484375,-69.85986328125,,,,,,,,,,
0,2018-10-30 16:45:07.9670,00:43,60,0,2018-10-30 16:45:14.6810,1540932314.6810799,-0.0032272186089580207,0.12806156312587727,-0.3703594212107035,-0.0197296142578125,-0.0410919189453125,-1.1676788330078125,41.570098876953125,14.861709594726562,-69.468017578125,,,,,,,,,,
0,2018-10-30 16:45:07.9670,00:43,60,0,2018-10-30 16:45:14.6970,1540932314.696859,0.08546163832896977,0.1295577270262838,-0.41642598279856713,0.0133819580078125,-0.0209197998046875,-1.1245574951171875,41.570098876953125,14.861709594726562,-69.468017578125,,,,,,,,,,
0,2018-10-30 16:45:07.9670,00:43,60,0,2018-10-30 16:45:14.7140,1540932314.713973,0.12330622268343179,0.0949771129038229,-0.5149970315934519,0.0148162841796875,0.02716064453125,-1.0737762451171875,41.58869934082031,15.090927124023438,-69.53652954101562,,,,,,,,,,
0,2018-10-30 16:45:07.9670,00:43,60,0,2018-10-30 16:45:14.7310,1540932314.73119,0.17431188282895638,0.11964730566177192,-0.5856557553193252,0.017181396484375,0.055450439453125,-1.013946533203125,41.622161865234375,15.239700317382812,-69.5291748046875,,,,,,,,,,
0,2018-10-30 16:45:07.9670,00:43,60,0,2018-10-30 16:45:14.7480,1540932314.7477732,0.2910416955165465,0.19853599610431713,-0.5780905136107372,0.0095977783203125,0.0281524658203125,-0.975311279296875,41.93133544921875,15.178634643554688,-69.51461791992188,,,,,,,,,,
0,2018-10-30 16:45:07.9670,00:43,60,0,2018-10-30 16:45:14.7640,1540932314.7643251,0.4034997978156495,0.29437730478187074,-0.47198405051147313,0.021331787109375,-0.0271453857421875,-0.9220428466796875,41.74076843261719,14.905517578125,-69.53515625,,,,,,,,,,
0,2018-10-30 16:45:07.9670,00:43,60,0,2018-10-30 16:45:14.7810,1540932314.78071,0.382341781903297,0.3178402866176868,-0.3380922951271944,0.0320281982421875,-0.082244873046875,-0.859466552734375,42.13954162597656,14.67120361328125,-69.60026550292969,,,,,,,,,,
0,2018-10-30 16:45:07.9670,00:43,60,0,2018-10-30 16:45:14.7980,1540932314.7979279,0.20204764031769562,0.24008210805788027,-0.2053579495526641,0.0418548583984375,-0.1176300048828125,-0.7986297607421875,42.078338623046875,14.6834716796875,-69.52507019042969,,,,,,,,,,
0,2018-10-30 16:45:07.9670,00:43,60,0,2018-10-30 16:45:14.8150,1540932314.814794,-0.10346940098786757,0.0791603328737333,-0.07269604195978396,0.05194091796875,-0.1464385986328125,-0.7564697265625,42.078338623046875,14.6834716796875,-69.52507019042969,,,,,,,,,,
0,2018-10-30 16:45:07.9670,00:43,60,0,2018-10-30 16:45:14.8310,1540932314.830776,-0.35928439950149993,-0.08303736278867065,-0.010724549709749093,0.0516815185546875,-0.146575927734375,-0.752899169921875,42.42601013183594,15.080947875976562,-69.49134826660156,,,,,,,,,,
0,2018-10-30 16:45:07.9670,00:43,60,0,2018-10-30 16:45:14.8490,1540932314.849443,-0.4547078582040201,-0.2571708138245917,-0.05375084659717827,0.0487823486328125,-0.122283935546875,-0.7969970703125,42.28880310058594,15.185943603515625,-69.41683959960938,,,,,,,,,,
0,2018-10-30 16:45:07.9670,00:43,60,0,2018-10-30 16:45:14.8520,1540932314.8517609,-0.4547078582040201,-0.2571708138245917,-0.05375084659717827,0.0487823486328125,-0.122283935546875,-0.7969970703125,42.28880310058594,15.185943603515625,-69.41683959960938,,,,,,,,,,
0,2018-10-30 16:45:07.9670,00:43,60,0,2018-10-30 16:45:14.8810,1540932314.880845,-0.4309482002227692,-0.5756425359367363,-0.2618965931789373,0.026397705078125,-0.10491943359375,-0.8502655029296875,41.86671447753906,15.8909912109375,-69.33551025390625,,,,,,,,,,
0,2018-10-30 16:45:07.9670,00:43,60,0,2018-10-30 16:45:14.8980,1540932314.897654,-0.40747003836873963,-0.6697322835653449,-0.32091570504451034,0.013153076171875,-0.1060943603515625,-0.8465728759765625,41.3392333984375,15.8399658203125,-69.28804016113281,,,,,,,,,,
0,2018-10-30 16:45:07.9670,00:43,60,0,2018-10-30 16:45:14.9140,1540932314.91369,-0.41980500158965967,-0.6265251580398993,-0.27695410598224535,0.009429931640625,-0.1274566650390625,-0.8177032470703125,41.3392333984375,15.8399658203125,-69.28804016113281,,,,,,,,,,
0,2018-10-30 16:45:07.9670,00:43,60,0,2018-10-30 16:45:14.9300,1540932314.9303231,-0.3482266883393819,-0.4979717090606844,-0.13867159690875297,0.0157928466796875,-0.1437835693359375,-0.82623291015625,41.16123962402344,16.495864868164062,-69.58554077148438,,,,,,,,,,
0,2018-10-30 16:45:07.9670,00:43,60,0,2018-10-30 16:45:14.9470,1540932314.947177,-0.18388594694779123,-0.3650291042889099,0.03171984647949778,0.0138092041015625,-0.1537017822265625,-0.8640289306640625,40.93377685546875,16.774032592773438,-69.50949096679688,,,,,,,,,,
0,2018-10-30 16:45:07.9670,00:43,60,0,2018-10-30 16:45:14.9640,1540932314.963723,-0.07045019821252013,-0.26614513406594076,0.1860186063487267,0.002838134765625,-0.14447021484375,-0.87890625,41.19532775878906,16.644699096679688,-69.50007629394531,,,,,,,,,,
0,2018-10-30 16:45:07.9670,00:43,60,0,2018-10-30 16:45:14.9800,1540932314.980448,-0.03644589214995239,-0.21284516064131287,0.29958751313850174,0.003448486328125,-0.1397552490234375,-0.8840789794921875,40.94798278808594,16.69354248046875,-69.51170349121094,,,,,,,,,,
0,2018-10-30 16:45:07.9670,00:43,60,0,2018-10-30 16:45:14.9970,1540932314.9970279,0.0008676578831478158,-0.15293735191998042,0.37568361286198987,-0.0125274658203125,-0.13323974609375,-0.9107513427734375,41.085205078125,16.588577270507812,-69.58622741699219,,,,,,,,,,
0,2018-10-30 16:45:07.9670,00:43,60,0,2018-10-30 16:45:15.0140,1540932315.0137439,0.15461327919396728,0.049934004122876706,0.39517235940308076,-0.026458740234375,-0.1520233154296875,-0.9747467041015625,41.085205078125,16.588577270507812,-69.58622741699219,,,,,,,,,,
0,2018-10-30 16:45:07.9670,00:43,60,0,2018-10-30 16:45:15.0300,1540932315.030497,0.4634829739958312,0.3438015798721063,0.2776657026255145,-0.02801513671875,-0.1636810302734375,-1.0722198486328125,41.500762939453125,16.274017333984375,-69.34115600585938,,,,,,,,,,
0,2018-10-30 16:45:07.9670,00:43,60,0,2018-10-30 16:45:15.0470,1540932315.0472832,0.45147185116346483,0.4978995373951432,0.17933939833480797,-0.003692626953125,-0.19342041015625,-1.101043701171875,41.82281494140625,16.132339477539062,-69.48501586914062,,,,,,,,,,
0,2018-10-30 16:45:07.9670,00:43,60,0,2018-10-30 16:45:15.0650,1540932315.064908,0.1519253507057503,0.5630519092511688,0.023146065666096675,0.006683349609375,-0.17987060546875,-1.067108154296875,42.504974365234375,15.998214721679688,-69.21873474121094,,,,,,,,,,
0,2018-10-30 16:45:07.9670,00:43,60,0,2018-10-30 16:45:15.0810,1540932315.081305,-0.07032689385404947,0.46694721394180627,-0.02403689305072818,0.095916748046875,-0.13482666015625,-1.305877685546875,42.764556884765625,15.868682861328125,-69.443603515625,,,,,,,,,,
0,2018-10-30 16:45:07.9670,00:43,60,0,2018-10-30 16:45:15.0970,1540932315.096974,-0.10014764016021174,0.33831200591712596,0.02828383604107754,0.095916748046875,-0.13482666015625,-1.305877685546875,43.109130859375,15.95660400390625,-69.18742370605469,,,,,,,,,,
0,2018-10-30 16:45:07.9670,00:43,60,0,2018-10-30 16:45:15.1140,1540932315.1137261,0.016087623512950663,0.3737996927068678,0.07113409798045249,0.0797882080078125,-0.1085205078125,-1.35491943359375,43.109130859375,15.95660400390625,-69.18742370605469,,,,,,,,,,
0,2018-10-30 16:45:07.9670,00:43,60,0,2018-10-30 16:45:15.1310,1540932315.130538,0.11695990980577296,0.45063881437448805,0.08833838493847337,0.0038299560546875,-0.0960693359375,-1.2402801513671875,43.61149597167969,16.1689453125,-68.83993530273438,,,,,,,,,,
0,2018-10-30 16:45:07.9670,00:43,60,0,2018-10-30 16:45:15.1470,1540932315.1471229,0.05291514664711141,0.5896909770030133,0.09066705299563865,0.0038299560546875,-0.0960693359375,-1.2402801513671875,43.90272521972656,15.878738403320312,-68.67881774902344,,,,,,,,,,
0,2018-10-30 16:45:07.9670,00:43,60,0,2018-10-30 16:45:15.1640,1540932315.163728,-0.0806391862270543,0.6362419675931624,0.1303785132742462,0.0702667236328125,-0.0664520263671875,-1.1813812255859375,44.356109619140625,16.022659301757812,-68.49264526367188,,,,,,,,,,
0,2018-10-30 16:45:07.9670,00:43,60,0,2018-10-30 16:45:15.1810,1540932315.180599,-0.3631244114772852,0.14386103260888136,0.32901943792551247,0.129058837890625,0.0218963623046875,-1.203399658203125,44.63249206542969,15.812896728515625,-68.40737915039062,,,,,,,,,,
0,2018-10-30 16:45:07.9670,00:43,60,0,2018-10-30 16:45:15.1970,1540932315.197029,-0.3631244114772852,0.14386103260888136,0.32901943792551247,0.129058837890625,0.0218963623046875,-1.203399658203125,44.79530334472656,16.2470703125,-68.30429077148438,,,,,,,,,,
0,2018-10-30 16:45:07.9670,00:43,60,0,2018-10-30 16:45:15.2140,1540932315.213803,-0.24781938997288747,-0.034672493180068625,0.3394800683712347,0.053253173828125,0.1136627197265625,-1.158203125,44.79530334472656,16.2470703125,-68.30429077148438,,,,,,,,,,
0,2018-10-30 16:45:07.9670,00:43,60,0,2018-10-30 16:45:15.2310,1540932315.2306828,0.1551349924515138,0.06255499084487122,0.2131413041545297,0.0261993408203125,0.093170166015625,-1.0691070556640625,44.92027282714844,16.222763061523438,-68.14227294921875,,,,,,,,,,
0,2018-10-30 16:45:07.9670,00:43,60,0,2018-10-30 16:45:15.2470,1540932315.24719,0.1551349924515138,0.06255499084487122,0.2131413041545297,0.0261993408203125,0.093170166015625,-1.0691070556640625,45.10710144042969,16.186264038085938,-67.97735595703125,,,,,,,,,,
0,2018-10-30 16:45:07.9670,00:43,60,0,2018-10-30 16:45:15.2640,1540932315.263823,0.22845687726746639,0.12559334542759185,0.23140606185862012,0.067352294921875,-0.032196044921875,-0.9058380126953125,45.30615234375,16.069061279296875,-68.0489501953125,,,,,,,,,,
0,2018-10-30 16:45:07.9670,00:43,60,0,2018-10-30 16:45:15.2810,1540932315.280675,-0.051844289572790546,0.05226267218004199,0.3084851343404565,0.0799713134765625,-0.0440216064453125,-0.8649444580078125,45.47370910644531,15.803314208984375,-67.89361572265625,,,,,,,,,,
0,2018-10-30 16:45:07.9670,00:43,60,0,2018-10-30 16:45:15.2980,1540932315.298221,-0.051844289572790546,0.05226267218004199,0.3084851343404565,0.0799713134765625,-0.0440216064453125,-0.8649444580078125,45.64436340332031,15.847122192382812,-67.96076965332031,,,,,,,,,,
0,2018-10-30 16:45:07.9670,00:43,60,0,2018-10-30 16:45:15.3150,1540932315.314633,-0.5380163307916609,-0.1713547087545324,0.3243892660543007,0.108734130859375,-0.028717041015625,-0.8641510009765625,45.54188537597656,16.100982666015625,-67.72268676757812,,,,,,,,,,
0,2018-10-30 16:45:07.9670,00:43,60,0,2018-10-30 16:45:15.3300,1540932315.330367,-0.5911290839916561,-0.21938881375574656,0.2922169485055985,0.0934906005859375,-0.0088043212890625,-0.8972015380859375,45.54188537597656,16.100982666015625,-67.72268676757812,,,,,,,,,,
0,2018-10-30 16:45:07.9670,00:43,60,0,2018-10-30 16:45:15.3470,1540932315.34718,-0.5911290839916561,-0.21938881375574656,0.2922169485055985,0.0710296630859375,-0.0086669921875,-0.9331207275390625,45.67192077636719,16.386444091796875,-67.54887390136719,,,,,,,,,,
0,2018-10-30 16:45:07.9670,00:43,60,0,2018-10-30 16:45:15.3640,1540932315.364342,-0.19442807012286992,-0.104962635411075,0.20766451337278174,0.051361083984375,-0.021453857421875,-0.934722900390625,45.657073974609375,16.466873168945312,-67.62474060058594,,,,,,,,,,
0,2018-10-30 16:45:07.9670,00:43,60,0,2018-10-30 16:45:15.3700,1540932315.369726,-0.19442807012286992,-0.104962635411075,0.20766451337278174,0.051361083984375,-0.021453857421875,-0.934722900390625,45.657073974609375,16.466873168945312,-67.62474060058594,,,,,,,,,,
0,2018-10-30 16:45:07.9670,00:43,60,0,2018-10-30 16:45:15.3850,1540932315.385231,-0.04354321645501356,-0.09876679113500565,0.18943118096955422,0.0404815673828125,-0.04278564453125,-0.8997650146484375,45.61708068847656,16.708602905273438,-67.30567932128906,,,,,,,,,,
0,2018-10-30 16:45:07.9670,00:43,60,0,2018-10-30 16:45:15.4010,1540932315.400673,-0.03179867604776412,-0.1919236334337594,0.1957386116952979,0.033538818359375,-0.07476806640625,-0.8581695556640625,45.860015869140625,16.350051879882812,-67.22775268554688,,,,,,,,,,
0,2018-10-30 16:45:07.9670,00:43,60,0,2018-10-30 16:45:15.4180,1540932315.417677,-0.07972945039868322,-0.3579243231327965,0.1687738393421366,0.007843017578125,-0.0940704345703125,-0.8358154296875,45.585601806640625,16.560028076171875,-67.07876586914062,,,,,,,,,,
0,2018-10-30 16:45:07.9670,00:43,60,0,2018-10-30 16:45:15.4340,1540932315.434022,-0.0960594215708311,-0.5381007529982164,0.09466605568850164,-0.03662109375,-0.1042938232421875,-0.842620849609375,45.44708251953125,16.664886474609375,-67.16044616699219,,,,,,,,,,
0,2018-10-30 16:45:07.9670,00:43,60,0,2018-10-30 16:45:15.4510,1540932315.450646,-0.03434359278544384,-0.6118569993879609,-0.001817341127870072,-0.0716094970703125,-0.121551513671875,-0.8572845458984375,45.44708251953125,16.664886474609375,-67.16044616699219,,,,,,,,,,
0,2018-10-30 16:45:07.9670,00:43,60,0,2018-10-30 16:45:15.4820,1540932315.481987,0.2223238835931229,-0.34715449968451606,-0.0036943370641579192,-0.027374267578125,-0.1800537109375,-0.902008056640625,45.28230285644531,16.230514526367188,-67.49781799316406,,,,,,,,,,
0,2018-10-30 16:45:07.9670,00:43,60,0,2018-10-30 16:45:15.4840,1540932315.483994,0.2223238835931229,-0.34715449968451606,-0.0036943370641579192,-0.027374267578125,-0.1800537109375,-0.902008056640625,45.28230285644531,16.230514526367188,-67.49781799316406,,,,,,,,,,
0,2018-10-30 16:45:07.9670,00:43,60,0,2018-10-30 16:45:15.5150,1540932315.515209,0.4696130381929756,0.19587070448536584,0.20037970252697898,-0.0034332275390625,-0.2214813232421875,-0.9882965087890625,45.42997741699219,15.73541259765625,-67.43016052246094,,,,,,,,,,
0,2018-10-30 16:45:07.9670,00:43,60,0,2018-10-30 16:45:15.5170,1540932315.5172858,0.4696130381929756,0.19587070448536584,0.20037970252697898,-0.0034332275390625,-0.2214813232421875,-0.9882965087890625,45.42997741699219,15.73541259765625,-67.43016052246094,,,,,,,,,,
0,2018-10-30 16:45:07.9670,00:43,60,0,2018-10-30 16:45:15.5340,1540932315.533953,0.617644314752812,0.36079920552953704,0.2551614587821269,-0.0048065185546875,-0.1972503662109375,-1.06610107421875,45.887451171875,15.179306030273438,-67.26985168457031,,,,,,,,,,
0,2018-10-30 16:45:07.9670,00:43,60,0,2018-10-30 16:45:15.5510,1540932315.551324,0.7477170971339172,0.3921360894442814,0.22090122293880257,-0.0042724609375,-0.15777587890625,-1.140594482421875,45.887451171875,15.179306030273438,-67.26985168457031,,,,,,,,,,
0,2018-10-30 16:45:07.9670,00:43,60,0,2018-10-30 16:45:15.5680,1540932315.567766,0.7654580110515891,0.34911698309179545,0.11697029613402427,0.0093841552734375,-0.141754150390625,-1.1582489013671875,46.237274169921875,14.876602172851562,-67.49627685546875,,,,,,,,,,
